success,timeout,failed_images,failed_audio,failed_video,trial_type,trial_index,time_elapsed,internal_node_id,run_id,condition,recorded_at,source_code_version,ip,user_agent,device,browser,browser_version,platform,platform_version,referer,accept_language,participant_id,screen_width,screen_height,is_mobile,age,gender,ai_use_frequency,ai_detection_experience,rt,stimulus,response,save_trial,trial_id,block,target_origin,set_size,target_present,cue_image,composite_image,target_position,correct_key,repetition,is_practice,no_response,correct,trial_index_global,true_origin,filename,realism_rating,classification_response,classification_correct
true,false,[],[],[],preload,0,7089,0.0-0.0,14,1,2026-06-10 12:46:56,fac33314ff793864f6ca77dbc392f4f8,45.85.105.118,"Mozilla/5.0 (Macintosh; Intel Mac OS X 10_15_7) AppleWebKit/537.36 (KHTML, like Gecko) Chrome/146.0.0.0 YaBrowser/26.4.0.0 Safari/537.36",desktop,Chrome,146.0.0.0,OS X,10_15_7,null,"ru,en;q=0.9,fr;q=0.8",p_1781095623962_1i62,1280,832,false,21,female,4,3,,,,,,,,,,,,,,,,,,,,,,,
,,,,,html-button-response,1,46909,0.0-1.0,14,1,2026-06-10 12:46:56,fac33314ff793864f6ca77dbc392f4f8,45.85.105.118,"Mozilla/5.0 (Macintosh; Intel Mac OS X 10_15_7) AppleWebKit/537.36 (KHTML, like Gecko) Chrome/146.0.0.0 YaBrowser/26.4.0.0 Safari/537.36",desktop,Chrome,146.0.0.0,OS X,10_15_7,null,"ru,en;q=0.9,fr;q=0.8",p_1781095623962_1i62,1280,832,false,21,female,4,3,39817,"<div class=""box""><h2>Информация об исследовании</h2><p>Вы приглашены принять участие в научном исследовании, посвящённом особенностям зрительного восприятия.</p><p>Участие <strong>анонимно и добровольно</strong>. Вы можете прекратить в любой момент.</p><p>Эксперимент займёт около <strong>10–15 минут</strong>.</p><p>Данные используются исключительно в учебно-научных целях (курсовая работа, НИУ ВШЭ).</p></div>",0,,,,,,,,,,,,,,,,,,,,
,,,,,html-button-response,2,52700,0.0-2.0,14,1,2026-06-10 12:46:56,fac33314ff793864f6ca77dbc392f4f8,45.85.105.118,"Mozilla/5.0 (Macintosh; Intel Mac OS X 10_15_7) AppleWebKit/537.36 (KHTML, like Gecko) Chrome/146.0.0.0 YaBrowser/26.4.0.0 Safari/537.36",desktop,Chrome,146.0.0.0,OS X,10_15_7,null,"ru,en;q=0.9,fr;q=0.8",p_1781095623962_1i62,1280,832,false,21,female,4,3,5789,"<div class=""box""><h2>Перед началом</h2><ul><li>Вы за <strong>компьютером или ноутбуком</strong></li><li>Клавиши <strong>←</strong> и <strong>→</strong> доступны</li><li>Браузер развёрнут <strong>на весь экран</strong> (F11)</li><li>Экран на расстоянии <strong>вытянутой руки</strong></li><li>Есть <strong>10–15 минут</strong> в тишине без отвлечений</li></ul></div>",0,,,,,,,,,,,,,,,,,,,,
,,,,,survey-html-form,3,72297,0.0-3.0,14,1,2026-06-10 12:46:56,fac33314ff793864f6ca77dbc392f4f8,45.85.105.118,"Mozilla/5.0 (Macintosh; Intel Mac OS X 10_15_7) AppleWebKit/537.36 (KHTML, like Gecko) Chrome/146.0.0.0 YaBrowser/26.4.0.0 Safari/537.36",desktop,Chrome,146.0.0.0,OS X,10_15_7,null,"ru,en;q=0.9,fr;q=0.8",p_1781095623962_1i62,1280,832,false,21,female,4,3,19594,,"{""age"":""21"",""gender"":""female"",""device"":""desktop"",""ai_use_frequency"":""4"",""ai_detection_experience"":""3""}",,,,,,,,,,,,,,,,,,,,
,,,,,html-button-response,4,92470,0.0-4.0,14,1,2026-06-10 12:46:56,fac33314ff793864f6ca77dbc392f4f8,45.85.105.118,"Mozilla/5.0 (Macintosh; Intel Mac OS X 10_15_7) AppleWebKit/537.36 (KHTML, like Gecko) Chrome/146.0.0.0 YaBrowser/26.4.0.0 Safari/537.36",desktop,Chrome,146.0.0.0,OS X,10_15_7,null,"ru,en;q=0.9,fr;q=0.8",p_1781095623962_1i62,1280,832,false,21,female,4,3,20172,"<div class=""box""><h2>Задача</h2><p>В каждой пробе сначала появится <strong>одно лицо</strong>. Его нужно запомнить.</p><p>Затем появится набор из нескольких лиц. Ваша задача — определить, было ли запомненное лицо в этом наборе.</p><div class=""keys""><div class=""key"">←<span>лица НЕ БЫЛО</span></div><div class=""key"">→<span>лицо БЫЛО</span></div></div><p>Держите пальцы на клавишах <strong>←</strong> и <strong>→</strong>.</p><p><strong>Важно:</strong> в начале каждой пробы — фиксационный крест (+). Смотрите на него и <strong>не двигайте глазами</strong> до появления набора. Отвечайте как можно быстрее.</p><p>Если ответ не дан в течение 5 секунд — проба завершится автоматически.</p><p>Сначала — несколько тренировочных проб с обратной связью.</p></div>",0,,,,,,,,,,,,,,,,,,,,
,,,,,html-keyboard-response,5,92973,0.0-5.0,14,1,2026-06-10 12:46:56,fac33314ff793864f6ca77dbc392f4f8,45.85.105.118,"Mozilla/5.0 (Macintosh; Intel Mac OS X 10_15_7) AppleWebKit/537.36 (KHTML, like Gecko) Chrome/146.0.0.0 YaBrowser/26.4.0.0 Safari/537.36",desktop,Chrome,146.0.0.0,OS X,10_15_7,null,"ru,en;q=0.9,fr;q=0.8",p_1781095623962_1i62,1280,832,false,21,female,4,3,null,"<p style=""font-size:60px;color:#fff;margin:0"">+</p>",null,,,,,,,,,,,,,,,,,,,,
,,,,,html-keyboard-response,6,94476,0.0-6.0,14,1,2026-06-10 12:46:56,fac33314ff793864f6ca77dbc392f4f8,45.85.105.118,"Mozilla/5.0 (Macintosh; Intel Mac OS X 10_15_7) AppleWebKit/537.36 (KHTML, like Gecko) Chrome/146.0.0.0 YaBrowser/26.4.0.0 Safari/537.36",desktop,Chrome,146.0.0.0,OS X,10_15_7,null,"ru,en;q=0.9,fr;q=0.8",p_1781095623962_1i62,1280,832,false,21,female,4,3,null,"<div style=""text-align:center""><p style=""color:#fff;font-size:18px;margin-bottom:12px"">Запомните это лицо</p><img src=""real_010.png"" style=""width:256px;height:256px;object-fit:contain;border:3px solid #fff;border-radius:4px;background:#808080""></div>",null,,,,,,,,,,,,,,,,,,,,
,,,,,html-keyboard-response,7,94979,0.0-7.0,14,1,2026-06-10 12:46:56,fac33314ff793864f6ca77dbc392f4f8,45.85.105.118,"Mozilla/5.0 (Macintosh; Intel Mac OS X 10_15_7) AppleWebKit/537.36 (KHTML, like Gecko) Chrome/146.0.0.0 YaBrowser/26.4.0.0 Safari/537.36",desktop,Chrome,146.0.0.0,OS X,10_15_7,null,"ru,en;q=0.9,fr;q=0.8",p_1781095623962_1i62,1280,832,false,21,female,4,3,null,"<p style=""color:#808080;font-size:1px"">.</p>",null,,,,,,,,,,,,,,,,,,,,
,,,,,html-keyboard-response,8,97923,0.0-8.0,14,1,2026-06-10 12:46:56,fac33314ff793864f6ca77dbc392f4f8,45.85.105.118,"Mozilla/5.0 (Macintosh; Intel Mac OS X 10_15_7) AppleWebKit/537.36 (KHTML, like Gecko) Chrome/146.0.0.0 YaBrowser/26.4.0.0 Safari/537.36",desktop,Chrome,146.0.0.0,OS X,10_15_7,null,"ru,en;q=0.9,fr;q=0.8",p_1781095623962_1i62,1280,832,false,21,female,4,3,2942,"<div style=""text-align:center""><img src=""ff_v4_003.png"" style=""max-width:90vw;max-height:72vh;display:block;margin:0 auto""><p style=""color:#fff;font-size:18px;margin-top:16px"">Было ли запомненное лицо в наборе?</p><div class=""keys"" style=""margin-top:12px""><div class=""key"">←<span>НЕ БЫЛО</span></div><div class=""key"">→<span>БЫЛО</span></div></div></div>",arrowright,true,ff_003,face_face,real,4,true,real_010.png,ff_v4_003.png,3,arrowright,1,true,false,true,9,,,,,
,,,,,html-keyboard-response,9,98726,0.0-9.0,14,1,2026-06-10 12:46:56,fac33314ff793864f6ca77dbc392f4f8,45.85.105.118,"Mozilla/5.0 (Macintosh; Intel Mac OS X 10_15_7) AppleWebKit/537.36 (KHTML, like Gecko) Chrome/146.0.0.0 YaBrowser/26.4.0.0 Safari/537.36",desktop,Chrome,146.0.0.0,OS X,10_15_7,null,"ru,en;q=0.9,fr;q=0.8",p_1781095623962_1i62,1280,832,false,21,female,4,3,null,"<p class=""fb-yes"">Верно</p>",null,,,,,,,,,,,,,,,,,,,,
,,,,,html-keyboard-response,10,99228,0.0-10.0,14,1,2026-06-10 12:46:56,fac33314ff793864f6ca77dbc392f4f8,45.85.105.118,"Mozilla/5.0 (Macintosh; Intel Mac OS X 10_15_7) AppleWebKit/537.36 (KHTML, like Gecko) Chrome/146.0.0.0 YaBrowser/26.4.0.0 Safari/537.36",desktop,Chrome,146.0.0.0,OS X,10_15_7,null,"ru,en;q=0.9,fr;q=0.8",p_1781095623962_1i62,1280,832,false,21,female,4,3,null,"<p style=""color:#808080;font-size:1px"">.</p>",null,,,,,,,,,,,,,,,,,,,,
,,,,,html-keyboard-response,11,99730,0.0-11.0,14,1,2026-06-10 12:46:56,fac33314ff793864f6ca77dbc392f4f8,45.85.105.118,"Mozilla/5.0 (Macintosh; Intel Mac OS X 10_15_7) AppleWebKit/537.36 (KHTML, like Gecko) Chrome/146.0.0.0 YaBrowser/26.4.0.0 Safari/537.36",desktop,Chrome,146.0.0.0,OS X,10_15_7,null,"ru,en;q=0.9,fr;q=0.8",p_1781095623962_1i62,1280,832,false,21,female,4,3,null,"<p style=""font-size:60px;color:#fff;margin:0"">+</p>",null,,,,,,,,,,,,,,,,,,,,
,,,,,html-keyboard-response,12,101233,0.0-12.0,14,1,2026-06-10 12:46:56,fac33314ff793864f6ca77dbc392f4f8,45.85.105.118,"Mozilla/5.0 (Macintosh; Intel Mac OS X 10_15_7) AppleWebKit/537.36 (KHTML, like Gecko) Chrome/146.0.0.0 YaBrowser/26.4.0.0 Safari/537.36",desktop,Chrome,146.0.0.0,OS X,10_15_7,null,"ru,en;q=0.9,fr;q=0.8",p_1781095623962_1i62,1280,832,false,21,female,4,3,null,"<div style=""text-align:center""><p style=""color:#fff;font-size:18px;margin-bottom:12px"">Запомните это лицо</p><img src=""real_003.png"" style=""width:256px;height:256px;object-fit:contain;border:3px solid #fff;border-radius:4px;background:#808080""></div>",null,,,,,,,,,,,,,,,,,,,,
,,,,,html-keyboard-response,13,101735,0.0-13.0,14,1,2026-06-10 12:46:56,fac33314ff793864f6ca77dbc392f4f8,45.85.105.118,"Mozilla/5.0 (Macintosh; Intel Mac OS X 10_15_7) AppleWebKit/537.36 (KHTML, like Gecko) Chrome/146.0.0.0 YaBrowser/26.4.0.0 Safari/537.36",desktop,Chrome,146.0.0.0,OS X,10_15_7,null,"ru,en;q=0.9,fr;q=0.8",p_1781095623962_1i62,1280,832,false,21,female,4,3,null,"<p style=""color:#808080;font-size:1px"">.</p>",null,,,,,,,,,,,,,,,,,,,,
,,,,,html-keyboard-response,14,103290,0.0-14.0,14,1,2026-06-10 12:46:56,fac33314ff793864f6ca77dbc392f4f8,45.85.105.118,"Mozilla/5.0 (Macintosh; Intel Mac OS X 10_15_7) AppleWebKit/537.36 (KHTML, like Gecko) Chrome/146.0.0.0 YaBrowser/26.4.0.0 Safari/537.36",desktop,Chrome,146.0.0.0,OS X,10_15_7,null,"ru,en;q=0.9,fr;q=0.8",p_1781095623962_1i62,1280,832,false,21,female,4,3,1554,"<div style=""text-align:center""><img src=""ff_v4_015.png"" style=""max-width:90vw;max-height:72vh;display:block;margin:0 auto""><p style=""color:#fff;font-size:18px;margin-top:16px"">Было ли запомненное лицо в наборе?</p><div class=""keys"" style=""margin-top:12px""><div class=""key"">←<span>НЕ БЫЛО</span></div><div class=""key"">→<span>БЫЛО</span></div></div></div>",arrowright,true,ff_015,face_face,real,8,true,real_003.png,ff_v4_015.png,6,arrowright,1,true,false,true,15,,,,,
,,,,,html-keyboard-response,15,104092,0.0-15.0,14,1,2026-06-10 12:46:56,fac33314ff793864f6ca77dbc392f4f8,45.85.105.118,"Mozilla/5.0 (Macintosh; Intel Mac OS X 10_15_7) AppleWebKit/537.36 (KHTML, like Gecko) Chrome/146.0.0.0 YaBrowser/26.4.0.0 Safari/537.36",desktop,Chrome,146.0.0.0,OS X,10_15_7,null,"ru,en;q=0.9,fr;q=0.8",p_1781095623962_1i62,1280,832,false,21,female,4,3,null,"<p class=""fb-yes"">Верно</p>",null,,,,,,,,,,,,,,,,,,,,
,,,,,html-keyboard-response,16,104594,0.0-16.0,14,1,2026-06-10 12:46:56,fac33314ff793864f6ca77dbc392f4f8,45.85.105.118,"Mozilla/5.0 (Macintosh; Intel Mac OS X 10_15_7) AppleWebKit/537.36 (KHTML, like Gecko) Chrome/146.0.0.0 YaBrowser/26.4.0.0 Safari/537.36",desktop,Chrome,146.0.0.0,OS X,10_15_7,null,"ru,en;q=0.9,fr;q=0.8",p_1781095623962_1i62,1280,832,false,21,female,4,3,null,"<p style=""color:#808080;font-size:1px"">.</p>",null,,,,,,,,,,,,,,,,,,,,
,,,,,html-keyboard-response,17,105097,0.0-17.0,14,1,2026-06-10 12:46:56,fac33314ff793864f6ca77dbc392f4f8,45.85.105.118,"Mozilla/5.0 (Macintosh; Intel Mac OS X 10_15_7) AppleWebKit/537.36 (KHTML, like Gecko) Chrome/146.0.0.0 YaBrowser/26.4.0.0 Safari/537.36",desktop,Chrome,146.0.0.0,OS X,10_15_7,null,"ru,en;q=0.9,fr;q=0.8",p_1781095623962_1i62,1280,832,false,21,female,4,3,null,"<p style=""font-size:60px;color:#fff;margin:0"">+</p>",null,,,,,,,,,,,,,,,,,,,,
,,,,,html-keyboard-response,18,106600,0.0-18.0,14,1,2026-06-10 12:46:56,fac33314ff793864f6ca77dbc392f4f8,45.85.105.118,"Mozilla/5.0 (Macintosh; Intel Mac OS X 10_15_7) AppleWebKit/537.36 (KHTML, like Gecko) Chrome/146.0.0.0 YaBrowser/26.4.0.0 Safari/537.36",desktop,Chrome,146.0.0.0,OS X,10_15_7,null,"ru,en;q=0.9,fr;q=0.8",p_1781095623962_1i62,1280,832,false,21,female,4,3,null,"<div style=""text-align:center""><p style=""color:#fff;font-size:18px;margin-bottom:12px"">Запомните это лицо</p><img src=""real_039.png"" style=""width:256px;height:256px;object-fit:contain;border:3px solid #fff;border-radius:4px;background:#808080""></div>",null,,,,,,,,,,,,,,,,,,,,
,,,,,html-keyboard-response,19,107101,0.0-19.0,14,1,2026-06-10 12:46:56,fac33314ff793864f6ca77dbc392f4f8,45.85.105.118,"Mozilla/5.0 (Macintosh; Intel Mac OS X 10_15_7) AppleWebKit/537.36 (KHTML, like Gecko) Chrome/146.0.0.0 YaBrowser/26.4.0.0 Safari/537.36",desktop,Chrome,146.0.0.0,OS X,10_15_7,null,"ru,en;q=0.9,fr;q=0.8",p_1781095623962_1i62,1280,832,false,21,female,4,3,null,"<p style=""color:#808080;font-size:1px"">.</p>",null,,,,,,,,,,,,,,,,,,,,
,,,,,html-keyboard-response,20,108743,0.0-20.0,14,1,2026-06-10 12:46:56,fac33314ff793864f6ca77dbc392f4f8,45.85.105.118,"Mozilla/5.0 (Macintosh; Intel Mac OS X 10_15_7) AppleWebKit/537.36 (KHTML, like Gecko) Chrome/146.0.0.0 YaBrowser/26.4.0.0 Safari/537.36",desktop,Chrome,146.0.0.0,OS X,10_15_7,null,"ru,en;q=0.9,fr;q=0.8",p_1781095623962_1i62,1280,832,false,21,female,4,3,1640,"<div style=""text-align:center""><img src=""ff_v4_012.png"" style=""max-width:90vw;max-height:72vh;display:block;margin:0 auto""><p style=""color:#fff;font-size:18px;margin-top:16px"">Было ли запомненное лицо в наборе?</p><div class=""keys"" style=""margin-top:12px""><div class=""key"">←<span>НЕ БЫЛО</span></div><div class=""key"">→<span>БЫЛО</span></div></div></div>",arrowright,true,ff_012,face_face,real,4,true,real_039.png,ff_v4_012.png,1,arrowright,1,true,false,true,21,,,,,
,,,,,html-keyboard-response,21,109546,0.0-21.0,14,1,2026-06-10 12:46:56,fac33314ff793864f6ca77dbc392f4f8,45.85.105.118,"Mozilla/5.0 (Macintosh; Intel Mac OS X 10_15_7) AppleWebKit/537.36 (KHTML, like Gecko) Chrome/146.0.0.0 YaBrowser/26.4.0.0 Safari/537.36",desktop,Chrome,146.0.0.0,OS X,10_15_7,null,"ru,en;q=0.9,fr;q=0.8",p_1781095623962_1i62,1280,832,false,21,female,4,3,null,"<p class=""fb-yes"">Верно</p>",null,,,,,,,,,,,,,,,,,,,,
,,,,,html-keyboard-response,22,110049,0.0-22.0,14,1,2026-06-10 12:46:56,fac33314ff793864f6ca77dbc392f4f8,45.85.105.118,"Mozilla/5.0 (Macintosh; Intel Mac OS X 10_15_7) AppleWebKit/537.36 (KHTML, like Gecko) Chrome/146.0.0.0 YaBrowser/26.4.0.0 Safari/537.36",desktop,Chrome,146.0.0.0,OS X,10_15_7,null,"ru,en;q=0.9,fr;q=0.8",p_1781095623962_1i62,1280,832,false,21,female,4,3,null,"<p style=""color:#808080;font-size:1px"">.</p>",null,,,,,,,,,,,,,,,,,,,,
,,,,,html-keyboard-response,23,110551,0.0-23.0,14,1,2026-06-10 12:46:56,fac33314ff793864f6ca77dbc392f4f8,45.85.105.118,"Mozilla/5.0 (Macintosh; Intel Mac OS X 10_15_7) AppleWebKit/537.36 (KHTML, like Gecko) Chrome/146.0.0.0 YaBrowser/26.4.0.0 Safari/537.36",desktop,Chrome,146.0.0.0,OS X,10_15_7,null,"ru,en;q=0.9,fr;q=0.8",p_1781095623962_1i62,1280,832,false,21,female,4,3,null,"<p style=""font-size:60px;color:#fff;margin:0"">+</p>",null,,,,,,,,,,,,,,,,,,,,
,,,,,html-keyboard-response,24,112054,0.0-24.0,14,1,2026-06-10 12:46:56,fac33314ff793864f6ca77dbc392f4f8,45.85.105.118,"Mozilla/5.0 (Macintosh; Intel Mac OS X 10_15_7) AppleWebKit/537.36 (KHTML, like Gecko) Chrome/146.0.0.0 YaBrowser/26.4.0.0 Safari/537.36",desktop,Chrome,146.0.0.0,OS X,10_15_7,null,"ru,en;q=0.9,fr;q=0.8",p_1781095623962_1i62,1280,832,false,21,female,4,3,null,"<div style=""text-align:center""><p style=""color:#fff;font-size:18px;margin-bottom:12px"">Запомните это лицо</p><img src=""ai_004.png"" style=""width:256px;height:256px;object-fit:contain;border:3px solid #fff;border-radius:4px;background:#808080""></div>",null,,,,,,,,,,,,,,,,,,,,
,,,,,html-keyboard-response,25,112556,0.0-25.0,14,1,2026-06-10 12:46:56,fac33314ff793864f6ca77dbc392f4f8,45.85.105.118,"Mozilla/5.0 (Macintosh; Intel Mac OS X 10_15_7) AppleWebKit/537.36 (KHTML, like Gecko) Chrome/146.0.0.0 YaBrowser/26.4.0.0 Safari/537.36",desktop,Chrome,146.0.0.0,OS X,10_15_7,null,"ru,en;q=0.9,fr;q=0.8",p_1781095623962_1i62,1280,832,false,21,female,4,3,null,"<p style=""color:#808080;font-size:1px"">.</p>",null,,,,,,,,,,,,,,,,,,,,
,,,,,html-keyboard-response,26,114062,0.0-26.0,14,1,2026-06-10 12:46:56,fac33314ff793864f6ca77dbc392f4f8,45.85.105.118,"Mozilla/5.0 (Macintosh; Intel Mac OS X 10_15_7) AppleWebKit/537.36 (KHTML, like Gecko) Chrome/146.0.0.0 YaBrowser/26.4.0.0 Safari/537.36",desktop,Chrome,146.0.0.0,OS X,10_15_7,null,"ru,en;q=0.9,fr;q=0.8",p_1781095623962_1i62,1280,832,false,21,female,4,3,1504,"<div style=""text-align:center""><img src=""ff_v4_017.png"" style=""max-width:90vw;max-height:72vh;display:block;margin:0 auto""><p style=""color:#fff;font-size:18px;margin-top:16px"">Было ли запомненное лицо в наборе?</p><div class=""keys"" style=""margin-top:12px""><div class=""key"">←<span>НЕ БЫЛО</span></div><div class=""key"">→<span>БЫЛО</span></div></div></div>",arrowright,true,ff_017,face_face,ai,8,true,ai_004.png,ff_v4_017.png,7,arrowright,1,true,false,true,27,,,,,
,,,,,html-keyboard-response,27,114863,0.0-27.0,14,1,2026-06-10 12:46:56,fac33314ff793864f6ca77dbc392f4f8,45.85.105.118,"Mozilla/5.0 (Macintosh; Intel Mac OS X 10_15_7) AppleWebKit/537.36 (KHTML, like Gecko) Chrome/146.0.0.0 YaBrowser/26.4.0.0 Safari/537.36",desktop,Chrome,146.0.0.0,OS X,10_15_7,null,"ru,en;q=0.9,fr;q=0.8",p_1781095623962_1i62,1280,832,false,21,female,4,3,null,"<p class=""fb-yes"">Верно</p>",null,,,,,,,,,,,,,,,,,,,,
,,,,,html-keyboard-response,28,115365,0.0-28.0,14,1,2026-06-10 12:46:56,fac33314ff793864f6ca77dbc392f4f8,45.85.105.118,"Mozilla/5.0 (Macintosh; Intel Mac OS X 10_15_7) AppleWebKit/537.36 (KHTML, like Gecko) Chrome/146.0.0.0 YaBrowser/26.4.0.0 Safari/537.36",desktop,Chrome,146.0.0.0,OS X,10_15_7,null,"ru,en;q=0.9,fr;q=0.8",p_1781095623962_1i62,1280,832,false,21,female,4,3,null,"<p style=""color:#808080;font-size:1px"">.</p>",null,,,,,,,,,,,,,,,,,,,,
,,,,,html-keyboard-response,29,115868,0.0-29.0,14,1,2026-06-10 12:46:56,fac33314ff793864f6ca77dbc392f4f8,45.85.105.118,"Mozilla/5.0 (Macintosh; Intel Mac OS X 10_15_7) AppleWebKit/537.36 (KHTML, like Gecko) Chrome/146.0.0.0 YaBrowser/26.4.0.0 Safari/537.36",desktop,Chrome,146.0.0.0,OS X,10_15_7,null,"ru,en;q=0.9,fr;q=0.8",p_1781095623962_1i62,1280,832,false,21,female,4,3,null,"<p style=""font-size:60px;color:#fff;margin:0"">+</p>",null,,,,,,,,,,,,,,,,,,,,
,,,,,html-keyboard-response,30,117371,0.0-30.0,14,1,2026-06-10 12:46:56,fac33314ff793864f6ca77dbc392f4f8,45.85.105.118,"Mozilla/5.0 (Macintosh; Intel Mac OS X 10_15_7) AppleWebKit/537.36 (KHTML, like Gecko) Chrome/146.0.0.0 YaBrowser/26.4.0.0 Safari/537.36",desktop,Chrome,146.0.0.0,OS X,10_15_7,null,"ru,en;q=0.9,fr;q=0.8",p_1781095623962_1i62,1280,832,false,21,female,4,3,null,"<div style=""text-align:center""><p style=""color:#fff;font-size:18px;margin-bottom:12px"">Запомните это лицо</p><img src=""ai_008.png"" style=""width:256px;height:256px;object-fit:contain;border:3px solid #fff;border-radius:4px;background:#808080""></div>",null,,,,,,,,,,,,,,,,,,,,
,,,,,html-keyboard-response,31,117873,0.0-31.0,14,1,2026-06-10 12:46:56,fac33314ff793864f6ca77dbc392f4f8,45.85.105.118,"Mozilla/5.0 (Macintosh; Intel Mac OS X 10_15_7) AppleWebKit/537.36 (KHTML, like Gecko) Chrome/146.0.0.0 YaBrowser/26.4.0.0 Safari/537.36",desktop,Chrome,146.0.0.0,OS X,10_15_7,null,"ru,en;q=0.9,fr;q=0.8",p_1781095623962_1i62,1280,832,false,21,female,4,3,null,"<p style=""color:#808080;font-size:1px"">.</p>",null,,,,,,,,,,,,,,,,,,,,
,,,,,html-keyboard-response,32,119571,0.0-32.0,14,1,2026-06-10 12:46:56,fac33314ff793864f6ca77dbc392f4f8,45.85.105.118,"Mozilla/5.0 (Macintosh; Intel Mac OS X 10_15_7) AppleWebKit/537.36 (KHTML, like Gecko) Chrome/146.0.0.0 YaBrowser/26.4.0.0 Safari/537.36",desktop,Chrome,146.0.0.0,OS X,10_15_7,null,"ru,en;q=0.9,fr;q=0.8",p_1781095623962_1i62,1280,832,false,21,female,4,3,1697,"<div style=""text-align:center""><img src=""ff_v4_014.png"" style=""max-width:90vw;max-height:72vh;display:block;margin:0 auto""><p style=""color:#fff;font-size:18px;margin-top:16px"">Было ли запомненное лицо в наборе?</p><div class=""keys"" style=""margin-top:12px""><div class=""key"">←<span>НЕ БЫЛО</span></div><div class=""key"">→<span>БЫЛО</span></div></div></div>",arrowright,true,ff_014,face_face,ai,8,true,ai_008.png,ff_v4_014.png,8,arrowright,1,true,false,true,33,,,,,
,,,,,html-keyboard-response,33,120373,0.0-33.0,14,1,2026-06-10 12:46:56,fac33314ff793864f6ca77dbc392f4f8,45.85.105.118,"Mozilla/5.0 (Macintosh; Intel Mac OS X 10_15_7) AppleWebKit/537.36 (KHTML, like Gecko) Chrome/146.0.0.0 YaBrowser/26.4.0.0 Safari/537.36",desktop,Chrome,146.0.0.0,OS X,10_15_7,null,"ru,en;q=0.9,fr;q=0.8",p_1781095623962_1i62,1280,832,false,21,female,4,3,null,"<p class=""fb-yes"">Верно</p>",null,,,,,,,,,,,,,,,,,,,,
,,,,,html-keyboard-response,34,120875,0.0-34.0,14,1,2026-06-10 12:46:56,fac33314ff793864f6ca77dbc392f4f8,45.85.105.118,"Mozilla/5.0 (Macintosh; Intel Mac OS X 10_15_7) AppleWebKit/537.36 (KHTML, like Gecko) Chrome/146.0.0.0 YaBrowser/26.4.0.0 Safari/537.36",desktop,Chrome,146.0.0.0,OS X,10_15_7,null,"ru,en;q=0.9,fr;q=0.8",p_1781095623962_1i62,1280,832,false,21,female,4,3,null,"<p style=""color:#808080;font-size:1px"">.</p>",null,,,,,,,,,,,,,,,,,,,,
,,,,,html-keyboard-response,35,121378,0.0-35.0,14,1,2026-06-10 12:46:56,fac33314ff793864f6ca77dbc392f4f8,45.85.105.118,"Mozilla/5.0 (Macintosh; Intel Mac OS X 10_15_7) AppleWebKit/537.36 (KHTML, like Gecko) Chrome/146.0.0.0 YaBrowser/26.4.0.0 Safari/537.36",desktop,Chrome,146.0.0.0,OS X,10_15_7,null,"ru,en;q=0.9,fr;q=0.8",p_1781095623962_1i62,1280,832,false,21,female,4,3,null,"<p style=""font-size:60px;color:#fff;margin:0"">+</p>",null,,,,,,,,,,,,,,,,,,,,
,,,,,html-keyboard-response,36,122881,0.0-36.0,14,1,2026-06-10 12:46:56,fac33314ff793864f6ca77dbc392f4f8,45.85.105.118,"Mozilla/5.0 (Macintosh; Intel Mac OS X 10_15_7) AppleWebKit/537.36 (KHTML, like Gecko) Chrome/146.0.0.0 YaBrowser/26.4.0.0 Safari/537.36",desktop,Chrome,146.0.0.0,OS X,10_15_7,null,"ru,en;q=0.9,fr;q=0.8",p_1781095623962_1i62,1280,832,false,21,female,4,3,null,"<div style=""text-align:center""><p style=""color:#fff;font-size:18px;margin-bottom:12px"">Запомните это лицо</p><img src=""ai_004.png"" style=""width:256px;height:256px;object-fit:contain;border:3px solid #fff;border-radius:4px;background:#808080""></div>",null,,,,,,,,,,,,,,,,,,,,
,,,,,html-keyboard-response,37,123383,0.0-37.0,14,1,2026-06-10 12:46:56,fac33314ff793864f6ca77dbc392f4f8,45.85.105.118,"Mozilla/5.0 (Macintosh; Intel Mac OS X 10_15_7) AppleWebKit/537.36 (KHTML, like Gecko) Chrome/146.0.0.0 YaBrowser/26.4.0.0 Safari/537.36",desktop,Chrome,146.0.0.0,OS X,10_15_7,null,"ru,en;q=0.9,fr;q=0.8",p_1781095623962_1i62,1280,832,false,21,female,4,3,null,"<p style=""color:#808080;font-size:1px"">.</p>",null,,,,,,,,,,,,,,,,,,,,
,,,,,html-keyboard-response,38,124280,0.0-38.0,14,1,2026-06-10 12:46:56,fac33314ff793864f6ca77dbc392f4f8,45.85.105.118,"Mozilla/5.0 (Macintosh; Intel Mac OS X 10_15_7) AppleWebKit/537.36 (KHTML, like Gecko) Chrome/146.0.0.0 YaBrowser/26.4.0.0 Safari/537.36",desktop,Chrome,146.0.0.0,OS X,10_15_7,null,"ru,en;q=0.9,fr;q=0.8",p_1781095623962_1i62,1280,832,false,21,female,4,3,896,"<div style=""text-align:center""><img src=""ff_v4_016.png"" style=""max-width:90vw;max-height:72vh;display:block;margin:0 auto""><p style=""color:#fff;font-size:18px;margin-top:16px"">Было ли запомненное лицо в наборе?</p><div class=""keys"" style=""margin-top:12px""><div class=""key"">←<span>НЕ БЫЛО</span></div><div class=""key"">→<span>БЫЛО</span></div></div></div>",arrowright,true,ff_016,face_face,ai,4,true,ai_004.png,ff_v4_016.png,3,arrowright,1,true,false,true,39,,,,,
,,,,,html-keyboard-response,39,125082,0.0-39.0,14,1,2026-06-10 12:46:56,fac33314ff793864f6ca77dbc392f4f8,45.85.105.118,"Mozilla/5.0 (Macintosh; Intel Mac OS X 10_15_7) AppleWebKit/537.36 (KHTML, like Gecko) Chrome/146.0.0.0 YaBrowser/26.4.0.0 Safari/537.36",desktop,Chrome,146.0.0.0,OS X,10_15_7,null,"ru,en;q=0.9,fr;q=0.8",p_1781095623962_1i62,1280,832,false,21,female,4,3,null,"<p class=""fb-yes"">Верно</p>",null,,,,,,,,,,,,,,,,,,,,
,,,,,html-keyboard-response,40,125585,0.0-40.0,14,1,2026-06-10 12:46:56,fac33314ff793864f6ca77dbc392f4f8,45.85.105.118,"Mozilla/5.0 (Macintosh; Intel Mac OS X 10_15_7) AppleWebKit/537.36 (KHTML, like Gecko) Chrome/146.0.0.0 YaBrowser/26.4.0.0 Safari/537.36",desktop,Chrome,146.0.0.0,OS X,10_15_7,null,"ru,en;q=0.9,fr;q=0.8",p_1781095623962_1i62,1280,832,false,21,female,4,3,null,"<p style=""color:#808080;font-size:1px"">.</p>",null,,,,,,,,,,,,,,,,,,,,
,,,,,html-keyboard-response,41,126087,0.0-41.0,14,1,2026-06-10 12:46:56,fac33314ff793864f6ca77dbc392f4f8,45.85.105.118,"Mozilla/5.0 (Macintosh; Intel Mac OS X 10_15_7) AppleWebKit/537.36 (KHTML, like Gecko) Chrome/146.0.0.0 YaBrowser/26.4.0.0 Safari/537.36",desktop,Chrome,146.0.0.0,OS X,10_15_7,null,"ru,en;q=0.9,fr;q=0.8",p_1781095623962_1i62,1280,832,false,21,female,4,3,null,"<p style=""font-size:60px;color:#fff;margin:0"">+</p>",null,,,,,,,,,,,,,,,,,,,,
,,,,,html-keyboard-response,42,127591,0.0-42.0,14,1,2026-06-10 12:46:56,fac33314ff793864f6ca77dbc392f4f8,45.85.105.118,"Mozilla/5.0 (Macintosh; Intel Mac OS X 10_15_7) AppleWebKit/537.36 (KHTML, like Gecko) Chrome/146.0.0.0 YaBrowser/26.4.0.0 Safari/537.36",desktop,Chrome,146.0.0.0,OS X,10_15_7,null,"ru,en;q=0.9,fr;q=0.8",p_1781095623962_1i62,1280,832,false,21,female,4,3,null,"<div style=""text-align:center""><p style=""color:#fff;font-size:18px;margin-bottom:12px"">Запомните это лицо</p><img src=""ai_001.png"" style=""width:256px;height:256px;object-fit:contain;border:3px solid #fff;border-radius:4px;background:#808080""></div>",null,,,,,,,,,,,,,,,,,,,,
,,,,,html-keyboard-response,43,128093,0.0-43.0,14,1,2026-06-10 12:46:56,fac33314ff793864f6ca77dbc392f4f8,45.85.105.118,"Mozilla/5.0 (Macintosh; Intel Mac OS X 10_15_7) AppleWebKit/537.36 (KHTML, like Gecko) Chrome/146.0.0.0 YaBrowser/26.4.0.0 Safari/537.36",desktop,Chrome,146.0.0.0,OS X,10_15_7,null,"ru,en;q=0.9,fr;q=0.8",p_1781095623962_1i62,1280,832,false,21,female,4,3,null,"<p style=""color:#808080;font-size:1px"">.</p>",null,,,,,,,,,,,,,,,,,,,,
,,,,,html-keyboard-response,44,129384,0.0-44.0,14,1,2026-06-10 12:46:56,fac33314ff793864f6ca77dbc392f4f8,45.85.105.118,"Mozilla/5.0 (Macintosh; Intel Mac OS X 10_15_7) AppleWebKit/537.36 (KHTML, like Gecko) Chrome/146.0.0.0 YaBrowser/26.4.0.0 Safari/537.36",desktop,Chrome,146.0.0.0,OS X,10_15_7,null,"ru,en;q=0.9,fr;q=0.8",p_1781095623962_1i62,1280,832,false,21,female,4,3,1290,"<div style=""text-align:center""><img src=""ff_v4_022.png"" style=""max-width:90vw;max-height:72vh;display:block;margin:0 auto""><p style=""color:#fff;font-size:18px;margin-top:16px"">Было ли запомненное лицо в наборе?</p><div class=""keys"" style=""margin-top:12px""><div class=""key"">←<span>НЕ БЫЛО</span></div><div class=""key"">→<span>БЫЛО</span></div></div></div>",arrowleft,true,ff_022,face_face,ai,4,false,ai_001.png,ff_v4_022.png,,arrowleft,1,true,false,true,45,,,,,
,,,,,html-keyboard-response,45,130186,0.0-45.0,14,1,2026-06-10 12:46:56,fac33314ff793864f6ca77dbc392f4f8,45.85.105.118,"Mozilla/5.0 (Macintosh; Intel Mac OS X 10_15_7) AppleWebKit/537.36 (KHTML, like Gecko) Chrome/146.0.0.0 YaBrowser/26.4.0.0 Safari/537.36",desktop,Chrome,146.0.0.0,OS X,10_15_7,null,"ru,en;q=0.9,fr;q=0.8",p_1781095623962_1i62,1280,832,false,21,female,4,3,null,"<p class=""fb-yes"">Верно</p>",null,,,,,,,,,,,,,,,,,,,,
,,,,,html-keyboard-response,46,130689,0.0-46.0,14,1,2026-06-10 12:46:56,fac33314ff793864f6ca77dbc392f4f8,45.85.105.118,"Mozilla/5.0 (Macintosh; Intel Mac OS X 10_15_7) AppleWebKit/537.36 (KHTML, like Gecko) Chrome/146.0.0.0 YaBrowser/26.4.0.0 Safari/537.36",desktop,Chrome,146.0.0.0,OS X,10_15_7,null,"ru,en;q=0.9,fr;q=0.8",p_1781095623962_1i62,1280,832,false,21,female,4,3,null,"<p style=""color:#808080;font-size:1px"">.</p>",null,,,,,,,,,,,,,,,,,,,,
,,,,,html-keyboard-response,47,131191,0.0-47.0,14,1,2026-06-10 12:46:56,fac33314ff793864f6ca77dbc392f4f8,45.85.105.118,"Mozilla/5.0 (Macintosh; Intel Mac OS X 10_15_7) AppleWebKit/537.36 (KHTML, like Gecko) Chrome/146.0.0.0 YaBrowser/26.4.0.0 Safari/537.36",desktop,Chrome,146.0.0.0,OS X,10_15_7,null,"ru,en;q=0.9,fr;q=0.8",p_1781095623962_1i62,1280,832,false,21,female,4,3,null,"<p style=""font-size:60px;color:#fff;margin:0"">+</p>",null,,,,,,,,,,,,,,,,,,,,
,,,,,html-keyboard-response,48,132694,0.0-48.0,14,1,2026-06-10 12:46:56,fac33314ff793864f6ca77dbc392f4f8,45.85.105.118,"Mozilla/5.0 (Macintosh; Intel Mac OS X 10_15_7) AppleWebKit/537.36 (KHTML, like Gecko) Chrome/146.0.0.0 YaBrowser/26.4.0.0 Safari/537.36",desktop,Chrome,146.0.0.0,OS X,10_15_7,null,"ru,en;q=0.9,fr;q=0.8",p_1781095623962_1i62,1280,832,false,21,female,4,3,null,"<div style=""text-align:center""><p style=""color:#fff;font-size:18px;margin-bottom:12px"">Запомните это лицо</p><img src=""ai_001.png"" style=""width:256px;height:256px;object-fit:contain;border:3px solid #fff;border-radius:4px;background:#808080""></div>",null,,,,,,,,,,,,,,,,,,,,
,,,,,html-keyboard-response,49,133195,0.0-49.0,14,1,2026-06-10 12:46:56,fac33314ff793864f6ca77dbc392f4f8,45.85.105.118,"Mozilla/5.0 (Macintosh; Intel Mac OS X 10_15_7) AppleWebKit/537.36 (KHTML, like Gecko) Chrome/146.0.0.0 YaBrowser/26.4.0.0 Safari/537.36",desktop,Chrome,146.0.0.0,OS X,10_15_7,null,"ru,en;q=0.9,fr;q=0.8",p_1781095623962_1i62,1280,832,false,21,female,4,3,null,"<p style=""color:#808080;font-size:1px"">.</p>",null,,,,,,,,,,,,,,,,,,,,
,,,,,html-keyboard-response,50,134109,0.0-50.0,14,1,2026-06-10 12:46:56,fac33314ff793864f6ca77dbc392f4f8,45.85.105.118,"Mozilla/5.0 (Macintosh; Intel Mac OS X 10_15_7) AppleWebKit/537.36 (KHTML, like Gecko) Chrome/146.0.0.0 YaBrowser/26.4.0.0 Safari/537.36",desktop,Chrome,146.0.0.0,OS X,10_15_7,null,"ru,en;q=0.9,fr;q=0.8",p_1781095623962_1i62,1280,832,false,21,female,4,3,912,"<div style=""text-align:center""><img src=""ff_v4_013.png"" style=""max-width:90vw;max-height:72vh;display:block;margin:0 auto""><p style=""color:#fff;font-size:18px;margin-top:16px"">Было ли запомненное лицо в наборе?</p><div class=""keys"" style=""margin-top:12px""><div class=""key"">←<span>НЕ БЫЛО</span></div><div class=""key"">→<span>БЫЛО</span></div></div></div>",arrowright,true,ff_013,face_face,ai,4,true,ai_001.png,ff_v4_013.png,2,arrowright,1,true,false,true,51,,,,,
,,,,,html-keyboard-response,51,134912,0.0-51.0,14,1,2026-06-10 12:46:56,fac33314ff793864f6ca77dbc392f4f8,45.85.105.118,"Mozilla/5.0 (Macintosh; Intel Mac OS X 10_15_7) AppleWebKit/537.36 (KHTML, like Gecko) Chrome/146.0.0.0 YaBrowser/26.4.0.0 Safari/537.36",desktop,Chrome,146.0.0.0,OS X,10_15_7,null,"ru,en;q=0.9,fr;q=0.8",p_1781095623962_1i62,1280,832,false,21,female,4,3,null,"<p class=""fb-yes"">Верно</p>",null,,,,,,,,,,,,,,,,,,,,
,,,,,html-keyboard-response,52,135414,0.0-52.0,14,1,2026-06-10 12:46:56,fac33314ff793864f6ca77dbc392f4f8,45.85.105.118,"Mozilla/5.0 (Macintosh; Intel Mac OS X 10_15_7) AppleWebKit/537.36 (KHTML, like Gecko) Chrome/146.0.0.0 YaBrowser/26.4.0.0 Safari/537.36",desktop,Chrome,146.0.0.0,OS X,10_15_7,null,"ru,en;q=0.9,fr;q=0.8",p_1781095623962_1i62,1280,832,false,21,female,4,3,null,"<p style=""color:#808080;font-size:1px"">.</p>",null,,,,,,,,,,,,,,,,,,,,
,,,,,html-button-response,53,141228,0.0-53.0,14,1,2026-06-10 12:46:56,fac33314ff793864f6ca77dbc392f4f8,45.85.105.118,"Mozilla/5.0 (Macintosh; Intel Mac OS X 10_15_7) AppleWebKit/537.36 (KHTML, like Gecko) Chrome/146.0.0.0 YaBrowser/26.4.0.0 Safari/537.36",desktop,Chrome,146.0.0.0,OS X,10_15_7,null,"ru,en;q=0.9,fr;q=0.8",p_1781095623962_1i62,1280,832,false,21,female,4,3,5812,"<div class=""box""><h2>Тренировка завершена</h2><p>Начинается основной блок. Обратной связи больше не будет.</p><p>Запоминайте показанное лицо и ищите его в наборе.</p><div class=""keys""><div class=""key"">←<span>НЕ БЫЛО</span></div><div class=""key"">→<span>БЫЛО</span></div></div></div>",0,,,,,,,,,,,,,,,,,,,,
,,,,,html-keyboard-response,54,141729,0.0-54.0,14,1,2026-06-10 12:46:56,fac33314ff793864f6ca77dbc392f4f8,45.85.105.118,"Mozilla/5.0 (Macintosh; Intel Mac OS X 10_15_7) AppleWebKit/537.36 (KHTML, like Gecko) Chrome/146.0.0.0 YaBrowser/26.4.0.0 Safari/537.36",desktop,Chrome,146.0.0.0,OS X,10_15_7,null,"ru,en;q=0.9,fr;q=0.8",p_1781095623962_1i62,1280,832,false,21,female,4,3,null,"<p style=""font-size:60px;color:#fff;margin:0"">+</p>",null,,,,,,,,,,,,,,,,,,,,
,,,,,html-keyboard-response,55,143232,0.0-55.0,14,1,2026-06-10 12:46:56,fac33314ff793864f6ca77dbc392f4f8,45.85.105.118,"Mozilla/5.0 (Macintosh; Intel Mac OS X 10_15_7) AppleWebKit/537.36 (KHTML, like Gecko) Chrome/146.0.0.0 YaBrowser/26.4.0.0 Safari/537.36",desktop,Chrome,146.0.0.0,OS X,10_15_7,null,"ru,en;q=0.9,fr;q=0.8",p_1781095623962_1i62,1280,832,false,21,female,4,3,null,"<div style=""text-align:center""><p style=""color:#fff;font-size:18px;margin-bottom:12px"">Запомните это лицо</p><img src=""real_039.png"" style=""width:256px;height:256px;object-fit:contain;border:3px solid #fff;border-radius:4px;background:#808080""></div>",null,,,,,,,,,,,,,,,,,,,,
,,,,,html-keyboard-response,56,143734,0.0-56.0,14,1,2026-06-10 12:46:56,fac33314ff793864f6ca77dbc392f4f8,45.85.105.118,"Mozilla/5.0 (Macintosh; Intel Mac OS X 10_15_7) AppleWebKit/537.36 (KHTML, like Gecko) Chrome/146.0.0.0 YaBrowser/26.4.0.0 Safari/537.36",desktop,Chrome,146.0.0.0,OS X,10_15_7,null,"ru,en;q=0.9,fr;q=0.8",p_1781095623962_1i62,1280,832,false,21,female,4,3,null,"<p style=""color:#808080;font-size:1px"">.</p>",null,,,,,,,,,,,,,,,,,,,,
,,,,,html-keyboard-response,57,145274,0.0-57.0,14,1,2026-06-10 12:46:56,fac33314ff793864f6ca77dbc392f4f8,45.85.105.118,"Mozilla/5.0 (Macintosh; Intel Mac OS X 10_15_7) AppleWebKit/537.36 (KHTML, like Gecko) Chrome/146.0.0.0 YaBrowser/26.4.0.0 Safari/537.36",desktop,Chrome,146.0.0.0,OS X,10_15_7,null,"ru,en;q=0.9,fr;q=0.8",p_1781095623962_1i62,1280,832,false,21,female,4,3,1539,"<div style=""text-align:center""><img src=""ff_v4_009.png"" style=""max-width:90vw;max-height:72vh;display:block;margin:0 auto""><p style=""color:#fff;font-size:18px;margin-top:16px"">Было ли запомненное лицо в наборе?</p><div class=""keys"" style=""margin-top:12px""><div class=""key"">←<span>НЕ БЫЛО</span></div><div class=""key"">→<span>БЫЛО</span></div></div></div>",arrowleft,true,ff_009,face_face,real,8,false,real_039.png,ff_v4_009.png,,arrowleft,1,false,false,true,58,,,,,
,,,,,html-keyboard-response,58,145775,0.0-58.0,14,1,2026-06-10 12:46:56,fac33314ff793864f6ca77dbc392f4f8,45.85.105.118,"Mozilla/5.0 (Macintosh; Intel Mac OS X 10_15_7) AppleWebKit/537.36 (KHTML, like Gecko) Chrome/146.0.0.0 YaBrowser/26.4.0.0 Safari/537.36",desktop,Chrome,146.0.0.0,OS X,10_15_7,null,"ru,en;q=0.9,fr;q=0.8",p_1781095623962_1i62,1280,832,false,21,female,4,3,null,"<p style=""color:#808080;font-size:1px"">.</p>",null,,,,,,,,,,,,,,,,,,,,
,,,,,html-keyboard-response,59,146278,0.0-59.0,14,1,2026-06-10 12:46:56,fac33314ff793864f6ca77dbc392f4f8,45.85.105.118,"Mozilla/5.0 (Macintosh; Intel Mac OS X 10_15_7) AppleWebKit/537.36 (KHTML, like Gecko) Chrome/146.0.0.0 YaBrowser/26.4.0.0 Safari/537.36",desktop,Chrome,146.0.0.0,OS X,10_15_7,null,"ru,en;q=0.9,fr;q=0.8",p_1781095623962_1i62,1280,832,false,21,female,4,3,null,"<p style=""font-size:60px;color:#fff;margin:0"">+</p>",null,,,,,,,,,,,,,,,,,,,,
,,,,,html-keyboard-response,60,147782,0.0-60.0,14,1,2026-06-10 12:46:56,fac33314ff793864f6ca77dbc392f4f8,45.85.105.118,"Mozilla/5.0 (Macintosh; Intel Mac OS X 10_15_7) AppleWebKit/537.36 (KHTML, like Gecko) Chrome/146.0.0.0 YaBrowser/26.4.0.0 Safari/537.36",desktop,Chrome,146.0.0.0,OS X,10_15_7,null,"ru,en;q=0.9,fr;q=0.8",p_1781095623962_1i62,1280,832,false,21,female,4,3,null,"<div style=""text-align:center""><p style=""color:#fff;font-size:18px;margin-bottom:12px"">Запомните это лицо</p><img src=""ai_002.png"" style=""width:256px;height:256px;object-fit:contain;border:3px solid #fff;border-radius:4px;background:#808080""></div>",null,,,,,,,,,,,,,,,,,,,,
,,,,,html-keyboard-response,61,148283,0.0-61.0,14,1,2026-06-10 12:46:56,fac33314ff793864f6ca77dbc392f4f8,45.85.105.118,"Mozilla/5.0 (Macintosh; Intel Mac OS X 10_15_7) AppleWebKit/537.36 (KHTML, like Gecko) Chrome/146.0.0.0 YaBrowser/26.4.0.0 Safari/537.36",desktop,Chrome,146.0.0.0,OS X,10_15_7,null,"ru,en;q=0.9,fr;q=0.8",p_1781095623962_1i62,1280,832,false,21,female,4,3,null,"<p style=""color:#808080;font-size:1px"">.</p>",null,,,,,,,,,,,,,,,,,,,,
,,,,,html-keyboard-response,62,149673,0.0-62.0,14,1,2026-06-10 12:46:56,fac33314ff793864f6ca77dbc392f4f8,45.85.105.118,"Mozilla/5.0 (Macintosh; Intel Mac OS X 10_15_7) AppleWebKit/537.36 (KHTML, like Gecko) Chrome/146.0.0.0 YaBrowser/26.4.0.0 Safari/537.36",desktop,Chrome,146.0.0.0,OS X,10_15_7,null,"ru,en;q=0.9,fr;q=0.8",p_1781095623962_1i62,1280,832,false,21,female,4,3,1388,"<div style=""text-align:center""><img src=""ff_v4_037.png"" style=""max-width:90vw;max-height:72vh;display:block;margin:0 auto""><p style=""color:#fff;font-size:18px;margin-top:16px"">Было ли запомненное лицо в наборе?</p><div class=""keys"" style=""margin-top:12px""><div class=""key"">←<span>НЕ БЫЛО</span></div><div class=""key"">→<span>БЫЛО</span></div></div></div>",arrowleft,true,ff_037,face_face,ai,4,false,ai_002.png,ff_v4_037.png,,arrowleft,1,false,false,true,63,,,,,
,,,,,html-keyboard-response,63,150175,0.0-63.0,14,1,2026-06-10 12:46:56,fac33314ff793864f6ca77dbc392f4f8,45.85.105.118,"Mozilla/5.0 (Macintosh; Intel Mac OS X 10_15_7) AppleWebKit/537.36 (KHTML, like Gecko) Chrome/146.0.0.0 YaBrowser/26.4.0.0 Safari/537.36",desktop,Chrome,146.0.0.0,OS X,10_15_7,null,"ru,en;q=0.9,fr;q=0.8",p_1781095623962_1i62,1280,832,false,21,female,4,3,null,"<p style=""color:#808080;font-size:1px"">.</p>",null,,,,,,,,,,,,,,,,,,,,
,,,,,html-keyboard-response,64,150676,0.0-64.0,14,1,2026-06-10 12:46:56,fac33314ff793864f6ca77dbc392f4f8,45.85.105.118,"Mozilla/5.0 (Macintosh; Intel Mac OS X 10_15_7) AppleWebKit/537.36 (KHTML, like Gecko) Chrome/146.0.0.0 YaBrowser/26.4.0.0 Safari/537.36",desktop,Chrome,146.0.0.0,OS X,10_15_7,null,"ru,en;q=0.9,fr;q=0.8",p_1781095623962_1i62,1280,832,false,21,female,4,3,null,"<p style=""font-size:60px;color:#fff;margin:0"">+</p>",null,,,,,,,,,,,,,,,,,,,,
,,,,,html-keyboard-response,65,152180,0.0-65.0,14,1,2026-06-10 12:46:56,fac33314ff793864f6ca77dbc392f4f8,45.85.105.118,"Mozilla/5.0 (Macintosh; Intel Mac OS X 10_15_7) AppleWebKit/537.36 (KHTML, like Gecko) Chrome/146.0.0.0 YaBrowser/26.4.0.0 Safari/537.36",desktop,Chrome,146.0.0.0,OS X,10_15_7,null,"ru,en;q=0.9,fr;q=0.8",p_1781095623962_1i62,1280,832,false,21,female,4,3,null,"<div style=""text-align:center""><p style=""color:#fff;font-size:18px;margin-bottom:12px"">Запомните это лицо</p><img src=""ai_008.png"" style=""width:256px;height:256px;object-fit:contain;border:3px solid #fff;border-radius:4px;background:#808080""></div>",null,,,,,,,,,,,,,,,,,,,,
,,,,,html-keyboard-response,66,152681,0.0-66.0,14,1,2026-06-10 12:46:56,fac33314ff793864f6ca77dbc392f4f8,45.85.105.118,"Mozilla/5.0 (Macintosh; Intel Mac OS X 10_15_7) AppleWebKit/537.36 (KHTML, like Gecko) Chrome/146.0.0.0 YaBrowser/26.4.0.0 Safari/537.36",desktop,Chrome,146.0.0.0,OS X,10_15_7,null,"ru,en;q=0.9,fr;q=0.8",p_1781095623962_1i62,1280,832,false,21,female,4,3,null,"<p style=""color:#808080;font-size:1px"">.</p>",null,,,,,,,,,,,,,,,,,,,,
,,,,,html-keyboard-response,67,153965,0.0-67.0,14,1,2026-06-10 12:46:56,fac33314ff793864f6ca77dbc392f4f8,45.85.105.118,"Mozilla/5.0 (Macintosh; Intel Mac OS X 10_15_7) AppleWebKit/537.36 (KHTML, like Gecko) Chrome/146.0.0.0 YaBrowser/26.4.0.0 Safari/537.36",desktop,Chrome,146.0.0.0,OS X,10_15_7,null,"ru,en;q=0.9,fr;q=0.8",p_1781095623962_1i62,1280,832,false,21,female,4,3,1283,"<div style=""text-align:center""><img src=""ff_v4_019.png"" style=""max-width:90vw;max-height:72vh;display:block;margin:0 auto""><p style=""color:#fff;font-size:18px;margin-top:16px"">Было ли запомненное лицо в наборе?</p><div class=""keys"" style=""margin-top:12px""><div class=""key"">←<span>НЕ БЫЛО</span></div><div class=""key"">→<span>БЫЛО</span></div></div></div>",arrowleft,true,ff_019,face_face,ai,4,false,ai_008.png,ff_v4_019.png,,arrowleft,1,false,false,true,68,,,,,
,,,,,html-keyboard-response,68,154466,0.0-68.0,14,1,2026-06-10 12:46:56,fac33314ff793864f6ca77dbc392f4f8,45.85.105.118,"Mozilla/5.0 (Macintosh; Intel Mac OS X 10_15_7) AppleWebKit/537.36 (KHTML, like Gecko) Chrome/146.0.0.0 YaBrowser/26.4.0.0 Safari/537.36",desktop,Chrome,146.0.0.0,OS X,10_15_7,null,"ru,en;q=0.9,fr;q=0.8",p_1781095623962_1i62,1280,832,false,21,female,4,3,null,"<p style=""color:#808080;font-size:1px"">.</p>",null,,,,,,,,,,,,,,,,,,,,
,,,,,html-keyboard-response,69,154967,0.0-69.0,14,1,2026-06-10 12:46:56,fac33314ff793864f6ca77dbc392f4f8,45.85.105.118,"Mozilla/5.0 (Macintosh; Intel Mac OS X 10_15_7) AppleWebKit/537.36 (KHTML, like Gecko) Chrome/146.0.0.0 YaBrowser/26.4.0.0 Safari/537.36",desktop,Chrome,146.0.0.0,OS X,10_15_7,null,"ru,en;q=0.9,fr;q=0.8",p_1781095623962_1i62,1280,832,false,21,female,4,3,null,"<p style=""font-size:60px;color:#fff;margin:0"">+</p>",null,,,,,,,,,,,,,,,,,,,,
,,,,,html-keyboard-response,70,156470,0.0-70.0,14,1,2026-06-10 12:46:56,fac33314ff793864f6ca77dbc392f4f8,45.85.105.118,"Mozilla/5.0 (Macintosh; Intel Mac OS X 10_15_7) AppleWebKit/537.36 (KHTML, like Gecko) Chrome/146.0.0.0 YaBrowser/26.4.0.0 Safari/537.36",desktop,Chrome,146.0.0.0,OS X,10_15_7,null,"ru,en;q=0.9,fr;q=0.8",p_1781095623962_1i62,1280,832,false,21,female,4,3,null,"<div style=""text-align:center""><p style=""color:#fff;font-size:18px;margin-bottom:12px"">Запомните это лицо</p><img src=""real_039.png"" style=""width:256px;height:256px;object-fit:contain;border:3px solid #fff;border-radius:4px;background:#808080""></div>",null,,,,,,,,,,,,,,,,,,,,
,,,,,html-keyboard-response,71,156972,0.0-71.0,14,1,2026-06-10 12:46:56,fac33314ff793864f6ca77dbc392f4f8,45.85.105.118,"Mozilla/5.0 (Macintosh; Intel Mac OS X 10_15_7) AppleWebKit/537.36 (KHTML, like Gecko) Chrome/146.0.0.0 YaBrowser/26.4.0.0 Safari/537.36",desktop,Chrome,146.0.0.0,OS X,10_15_7,null,"ru,en;q=0.9,fr;q=0.8",p_1781095623962_1i62,1280,832,false,21,female,4,3,null,"<p style=""color:#808080;font-size:1px"">.</p>",null,,,,,,,,,,,,,,,,,,,,
,,,,,html-keyboard-response,72,158036,0.0-72.0,14,1,2026-06-10 12:46:56,fac33314ff793864f6ca77dbc392f4f8,45.85.105.118,"Mozilla/5.0 (Macintosh; Intel Mac OS X 10_15_7) AppleWebKit/537.36 (KHTML, like Gecko) Chrome/146.0.0.0 YaBrowser/26.4.0.0 Safari/537.36",desktop,Chrome,146.0.0.0,OS X,10_15_7,null,"ru,en;q=0.9,fr;q=0.8",p_1781095623962_1i62,1280,832,false,21,female,4,3,1063,"<div style=""text-align:center""><img src=""ff_v4_027.png"" style=""max-width:90vw;max-height:72vh;display:block;margin:0 auto""><p style=""color:#fff;font-size:18px;margin-top:16px"">Было ли запомненное лицо в наборе?</p><div class=""keys"" style=""margin-top:12px""><div class=""key"">←<span>НЕ БЫЛО</span></div><div class=""key"">→<span>БЫЛО</span></div></div></div>",arrowleft,true,ff_027,face_face,real,4,false,real_039.png,ff_v4_027.png,,arrowleft,1,false,false,true,73,,,,,
,,,,,html-keyboard-response,73,158538,0.0-73.0,14,1,2026-06-10 12:46:56,fac33314ff793864f6ca77dbc392f4f8,45.85.105.118,"Mozilla/5.0 (Macintosh; Intel Mac OS X 10_15_7) AppleWebKit/537.36 (KHTML, like Gecko) Chrome/146.0.0.0 YaBrowser/26.4.0.0 Safari/537.36",desktop,Chrome,146.0.0.0,OS X,10_15_7,null,"ru,en;q=0.9,fr;q=0.8",p_1781095623962_1i62,1280,832,false,21,female,4,3,null,"<p style=""color:#808080;font-size:1px"">.</p>",null,,,,,,,,,,,,,,,,,,,,
,,,,,html-keyboard-response,74,159040,0.0-74.0,14,1,2026-06-10 12:46:56,fac33314ff793864f6ca77dbc392f4f8,45.85.105.118,"Mozilla/5.0 (Macintosh; Intel Mac OS X 10_15_7) AppleWebKit/537.36 (KHTML, like Gecko) Chrome/146.0.0.0 YaBrowser/26.4.0.0 Safari/537.36",desktop,Chrome,146.0.0.0,OS X,10_15_7,null,"ru,en;q=0.9,fr;q=0.8",p_1781095623962_1i62,1280,832,false,21,female,4,3,null,"<p style=""font-size:60px;color:#fff;margin:0"">+</p>",null,,,,,,,,,,,,,,,,,,,,
,,,,,html-keyboard-response,75,160542,0.0-75.0,14,1,2026-06-10 12:46:56,fac33314ff793864f6ca77dbc392f4f8,45.85.105.118,"Mozilla/5.0 (Macintosh; Intel Mac OS X 10_15_7) AppleWebKit/537.36 (KHTML, like Gecko) Chrome/146.0.0.0 YaBrowser/26.4.0.0 Safari/537.36",desktop,Chrome,146.0.0.0,OS X,10_15_7,null,"ru,en;q=0.9,fr;q=0.8",p_1781095623962_1i62,1280,832,false,21,female,4,3,null,"<div style=""text-align:center""><p style=""color:#fff;font-size:18px;margin-bottom:12px"">Запомните это лицо</p><img src=""ai_004.png"" style=""width:256px;height:256px;object-fit:contain;border:3px solid #fff;border-radius:4px;background:#808080""></div>",null,,,,,,,,,,,,,,,,,,,,
,,,,,html-keyboard-response,76,161044,0.0-76.0,14,1,2026-06-10 12:46:56,fac33314ff793864f6ca77dbc392f4f8,45.85.105.118,"Mozilla/5.0 (Macintosh; Intel Mac OS X 10_15_7) AppleWebKit/537.36 (KHTML, like Gecko) Chrome/146.0.0.0 YaBrowser/26.4.0.0 Safari/537.36",desktop,Chrome,146.0.0.0,OS X,10_15_7,null,"ru,en;q=0.9,fr;q=0.8",p_1781095623962_1i62,1280,832,false,21,female,4,3,null,"<p style=""color:#808080;font-size:1px"">.</p>",null,,,,,,,,,,,,,,,,,,,,
,,,,,html-keyboard-response,77,163202,0.0-77.0,14,1,2026-06-10 12:46:56,fac33314ff793864f6ca77dbc392f4f8,45.85.105.118,"Mozilla/5.0 (Macintosh; Intel Mac OS X 10_15_7) AppleWebKit/537.36 (KHTML, like Gecko) Chrome/146.0.0.0 YaBrowser/26.4.0.0 Safari/537.36",desktop,Chrome,146.0.0.0,OS X,10_15_7,null,"ru,en;q=0.9,fr;q=0.8",p_1781095623962_1i62,1280,832,false,21,female,4,3,2157,"<div style=""text-align:center""><img src=""ff_v4_025.png"" style=""max-width:90vw;max-height:72vh;display:block;margin:0 auto""><p style=""color:#fff;font-size:18px;margin-top:16px"">Было ли запомненное лицо в наборе?</p><div class=""keys"" style=""margin-top:12px""><div class=""key"">←<span>НЕ БЫЛО</span></div><div class=""key"">→<span>БЫЛО</span></div></div></div>",arrowleft,true,ff_025,face_face,ai,8,false,ai_004.png,ff_v4_025.png,,arrowleft,1,false,false,true,78,,,,,
,,,,,html-keyboard-response,78,163703,0.0-78.0,14,1,2026-06-10 12:46:56,fac33314ff793864f6ca77dbc392f4f8,45.85.105.118,"Mozilla/5.0 (Macintosh; Intel Mac OS X 10_15_7) AppleWebKit/537.36 (KHTML, like Gecko) Chrome/146.0.0.0 YaBrowser/26.4.0.0 Safari/537.36",desktop,Chrome,146.0.0.0,OS X,10_15_7,null,"ru,en;q=0.9,fr;q=0.8",p_1781095623962_1i62,1280,832,false,21,female,4,3,null,"<p style=""color:#808080;font-size:1px"">.</p>",null,,,,,,,,,,,,,,,,,,,,
,,,,,html-keyboard-response,79,164205,0.0-79.0,14,1,2026-06-10 12:46:56,fac33314ff793864f6ca77dbc392f4f8,45.85.105.118,"Mozilla/5.0 (Macintosh; Intel Mac OS X 10_15_7) AppleWebKit/537.36 (KHTML, like Gecko) Chrome/146.0.0.0 YaBrowser/26.4.0.0 Safari/537.36",desktop,Chrome,146.0.0.0,OS X,10_15_7,null,"ru,en;q=0.9,fr;q=0.8",p_1781095623962_1i62,1280,832,false,21,female,4,3,null,"<p style=""font-size:60px;color:#fff;margin:0"">+</p>",null,,,,,,,,,,,,,,,,,,,,
,,,,,html-keyboard-response,80,165709,0.0-80.0,14,1,2026-06-10 12:46:56,fac33314ff793864f6ca77dbc392f4f8,45.85.105.118,"Mozilla/5.0 (Macintosh; Intel Mac OS X 10_15_7) AppleWebKit/537.36 (KHTML, like Gecko) Chrome/146.0.0.0 YaBrowser/26.4.0.0 Safari/537.36",desktop,Chrome,146.0.0.0,OS X,10_15_7,null,"ru,en;q=0.9,fr;q=0.8",p_1781095623962_1i62,1280,832,false,21,female,4,3,null,"<div style=""text-align:center""><p style=""color:#fff;font-size:18px;margin-bottom:12px"">Запомните это лицо</p><img src=""real_010.png"" style=""width:256px;height:256px;object-fit:contain;border:3px solid #fff;border-radius:4px;background:#808080""></div>",null,,,,,,,,,,,,,,,,,,,,
,,,,,html-keyboard-response,81,166210,0.0-81.0,14,1,2026-06-10 12:46:56,fac33314ff793864f6ca77dbc392f4f8,45.85.105.118,"Mozilla/5.0 (Macintosh; Intel Mac OS X 10_15_7) AppleWebKit/537.36 (KHTML, like Gecko) Chrome/146.0.0.0 YaBrowser/26.4.0.0 Safari/537.36",desktop,Chrome,146.0.0.0,OS X,10_15_7,null,"ru,en;q=0.9,fr;q=0.8",p_1781095623962_1i62,1280,832,false,21,female,4,3,null,"<p style=""color:#808080;font-size:1px"">.</p>",null,,,,,,,,,,,,,,,,,,,,
,,,,,html-keyboard-response,82,169003,0.0-82.0,14,1,2026-06-10 12:46:56,fac33314ff793864f6ca77dbc392f4f8,45.85.105.118,"Mozilla/5.0 (Macintosh; Intel Mac OS X 10_15_7) AppleWebKit/537.36 (KHTML, like Gecko) Chrome/146.0.0.0 YaBrowser/26.4.0.0 Safari/537.36",desktop,Chrome,146.0.0.0,OS X,10_15_7,null,"ru,en;q=0.9,fr;q=0.8",p_1781095623962_1i62,1280,832,false,21,female,4,3,2792,"<div style=""text-align:center""><img src=""ff_v4_020.png"" style=""max-width:90vw;max-height:72vh;display:block;margin:0 auto""><p style=""color:#fff;font-size:18px;margin-top:16px"">Было ли запомненное лицо в наборе?</p><div class=""keys"" style=""margin-top:12px""><div class=""key"">←<span>НЕ БЫЛО</span></div><div class=""key"">→<span>БЫЛО</span></div></div></div>",arrowleft,true,ff_020,face_face,real,8,false,real_010.png,ff_v4_020.png,,arrowleft,1,false,false,true,83,,,,,
,,,,,html-keyboard-response,83,169505,0.0-83.0,14,1,2026-06-10 12:46:56,fac33314ff793864f6ca77dbc392f4f8,45.85.105.118,"Mozilla/5.0 (Macintosh; Intel Mac OS X 10_15_7) AppleWebKit/537.36 (KHTML, like Gecko) Chrome/146.0.0.0 YaBrowser/26.4.0.0 Safari/537.36",desktop,Chrome,146.0.0.0,OS X,10_15_7,null,"ru,en;q=0.9,fr;q=0.8",p_1781095623962_1i62,1280,832,false,21,female,4,3,null,"<p style=""color:#808080;font-size:1px"">.</p>",null,,,,,,,,,,,,,,,,,,,,
,,,,,html-keyboard-response,84,170007,0.0-84.0,14,1,2026-06-10 12:46:56,fac33314ff793864f6ca77dbc392f4f8,45.85.105.118,"Mozilla/5.0 (Macintosh; Intel Mac OS X 10_15_7) AppleWebKit/537.36 (KHTML, like Gecko) Chrome/146.0.0.0 YaBrowser/26.4.0.0 Safari/537.36",desktop,Chrome,146.0.0.0,OS X,10_15_7,null,"ru,en;q=0.9,fr;q=0.8",p_1781095623962_1i62,1280,832,false,21,female,4,3,null,"<p style=""font-size:60px;color:#fff;margin:0"">+</p>",null,,,,,,,,,,,,,,,,,,,,
,,,,,html-keyboard-response,85,171510,0.0-85.0,14,1,2026-06-10 12:46:56,fac33314ff793864f6ca77dbc392f4f8,45.85.105.118,"Mozilla/5.0 (Macintosh; Intel Mac OS X 10_15_7) AppleWebKit/537.36 (KHTML, like Gecko) Chrome/146.0.0.0 YaBrowser/26.4.0.0 Safari/537.36",desktop,Chrome,146.0.0.0,OS X,10_15_7,null,"ru,en;q=0.9,fr;q=0.8",p_1781095623962_1i62,1280,832,false,21,female,4,3,null,"<div style=""text-align:center""><p style=""color:#fff;font-size:18px;margin-bottom:12px"">Запомните это лицо</p><img src=""real_015.png"" style=""width:256px;height:256px;object-fit:contain;border:3px solid #fff;border-radius:4px;background:#808080""></div>",null,,,,,,,,,,,,,,,,,,,,
,,,,,html-keyboard-response,86,172011,0.0-86.0,14,1,2026-06-10 12:46:56,fac33314ff793864f6ca77dbc392f4f8,45.85.105.118,"Mozilla/5.0 (Macintosh; Intel Mac OS X 10_15_7) AppleWebKit/537.36 (KHTML, like Gecko) Chrome/146.0.0.0 YaBrowser/26.4.0.0 Safari/537.36",desktop,Chrome,146.0.0.0,OS X,10_15_7,null,"ru,en;q=0.9,fr;q=0.8",p_1781095623962_1i62,1280,832,false,21,female,4,3,null,"<p style=""color:#808080;font-size:1px"">.</p>",null,,,,,,,,,,,,,,,,,,,,
,,,,,html-keyboard-response,87,172777,0.0-87.0,14,1,2026-06-10 12:46:56,fac33314ff793864f6ca77dbc392f4f8,45.85.105.118,"Mozilla/5.0 (Macintosh; Intel Mac OS X 10_15_7) AppleWebKit/537.36 (KHTML, like Gecko) Chrome/146.0.0.0 YaBrowser/26.4.0.0 Safari/537.36",desktop,Chrome,146.0.0.0,OS X,10_15_7,null,"ru,en;q=0.9,fr;q=0.8",p_1781095623962_1i62,1280,832,false,21,female,4,3,764,"<div style=""text-align:center""><img src=""ff_v4_004.png"" style=""max-width:90vw;max-height:72vh;display:block;margin:0 auto""><p style=""color:#fff;font-size:18px;margin-top:16px"">Было ли запомненное лицо в наборе?</p><div class=""keys"" style=""margin-top:12px""><div class=""key"">←<span>НЕ БЫЛО</span></div><div class=""key"">→<span>БЫЛО</span></div></div></div>",arrowright,true,ff_004,face_face,real,4,true,real_015.png,ff_v4_004.png,4,arrowright,1,false,false,true,88,,,,,
,,,,,html-keyboard-response,88,173278,0.0-88.0,14,1,2026-06-10 12:46:56,fac33314ff793864f6ca77dbc392f4f8,45.85.105.118,"Mozilla/5.0 (Macintosh; Intel Mac OS X 10_15_7) AppleWebKit/537.36 (KHTML, like Gecko) Chrome/146.0.0.0 YaBrowser/26.4.0.0 Safari/537.36",desktop,Chrome,146.0.0.0,OS X,10_15_7,null,"ru,en;q=0.9,fr;q=0.8",p_1781095623962_1i62,1280,832,false,21,female,4,3,null,"<p style=""color:#808080;font-size:1px"">.</p>",null,,,,,,,,,,,,,,,,,,,,
,,,,,html-keyboard-response,89,173780,0.0-89.0,14,1,2026-06-10 12:46:56,fac33314ff793864f6ca77dbc392f4f8,45.85.105.118,"Mozilla/5.0 (Macintosh; Intel Mac OS X 10_15_7) AppleWebKit/537.36 (KHTML, like Gecko) Chrome/146.0.0.0 YaBrowser/26.4.0.0 Safari/537.36",desktop,Chrome,146.0.0.0,OS X,10_15_7,null,"ru,en;q=0.9,fr;q=0.8",p_1781095623962_1i62,1280,832,false,21,female,4,3,null,"<p style=""font-size:60px;color:#fff;margin:0"">+</p>",null,,,,,,,,,,,,,,,,,,,,
,,,,,html-keyboard-response,90,175284,0.0-90.0,14,1,2026-06-10 12:46:56,fac33314ff793864f6ca77dbc392f4f8,45.85.105.118,"Mozilla/5.0 (Macintosh; Intel Mac OS X 10_15_7) AppleWebKit/537.36 (KHTML, like Gecko) Chrome/146.0.0.0 YaBrowser/26.4.0.0 Safari/537.36",desktop,Chrome,146.0.0.0,OS X,10_15_7,null,"ru,en;q=0.9,fr;q=0.8",p_1781095623962_1i62,1280,832,false,21,female,4,3,null,"<div style=""text-align:center""><p style=""color:#fff;font-size:18px;margin-bottom:12px"">Запомните это лицо</p><img src=""ai_006.png"" style=""width:256px;height:256px;object-fit:contain;border:3px solid #fff;border-radius:4px;background:#808080""></div>",null,,,,,,,,,,,,,,,,,,,,
,,,,,html-keyboard-response,91,175785,0.0-91.0,14,1,2026-06-10 12:46:56,fac33314ff793864f6ca77dbc392f4f8,45.85.105.118,"Mozilla/5.0 (Macintosh; Intel Mac OS X 10_15_7) AppleWebKit/537.36 (KHTML, like Gecko) Chrome/146.0.0.0 YaBrowser/26.4.0.0 Safari/537.36",desktop,Chrome,146.0.0.0,OS X,10_15_7,null,"ru,en;q=0.9,fr;q=0.8",p_1781095623962_1i62,1280,832,false,21,female,4,3,null,"<p style=""color:#808080;font-size:1px"">.</p>",null,,,,,,,,,,,,,,,,,,,,
,,,,,html-keyboard-response,92,177142,0.0-92.0,14,1,2026-06-10 12:46:56,fac33314ff793864f6ca77dbc392f4f8,45.85.105.118,"Mozilla/5.0 (Macintosh; Intel Mac OS X 10_15_7) AppleWebKit/537.36 (KHTML, like Gecko) Chrome/146.0.0.0 YaBrowser/26.4.0.0 Safari/537.36",desktop,Chrome,146.0.0.0,OS X,10_15_7,null,"ru,en;q=0.9,fr;q=0.8",p_1781095623962_1i62,1280,832,false,21,female,4,3,1356,"<div style=""text-align:center""><img src=""ff_v4_021.png"" style=""max-width:90vw;max-height:72vh;display:block;margin:0 auto""><p style=""color:#fff;font-size:18px;margin-top:16px"">Было ли запомненное лицо в наборе?</p><div class=""keys"" style=""margin-top:12px""><div class=""key"">←<span>НЕ БЫЛО</span></div><div class=""key"">→<span>БЫЛО</span></div></div></div>",arrowleft,true,ff_021,face_face,ai,4,false,ai_006.png,ff_v4_021.png,,arrowleft,1,false,false,true,93,,,,,
,,,,,html-keyboard-response,93,177643,0.0-93.0,14,1,2026-06-10 12:46:56,fac33314ff793864f6ca77dbc392f4f8,45.85.105.118,"Mozilla/5.0 (Macintosh; Intel Mac OS X 10_15_7) AppleWebKit/537.36 (KHTML, like Gecko) Chrome/146.0.0.0 YaBrowser/26.4.0.0 Safari/537.36",desktop,Chrome,146.0.0.0,OS X,10_15_7,null,"ru,en;q=0.9,fr;q=0.8",p_1781095623962_1i62,1280,832,false,21,female,4,3,null,"<p style=""color:#808080;font-size:1px"">.</p>",null,,,,,,,,,,,,,,,,,,,,
,,,,,html-keyboard-response,94,178145,0.0-94.0,14,1,2026-06-10 12:46:56,fac33314ff793864f6ca77dbc392f4f8,45.85.105.118,"Mozilla/5.0 (Macintosh; Intel Mac OS X 10_15_7) AppleWebKit/537.36 (KHTML, like Gecko) Chrome/146.0.0.0 YaBrowser/26.4.0.0 Safari/537.36",desktop,Chrome,146.0.0.0,OS X,10_15_7,null,"ru,en;q=0.9,fr;q=0.8",p_1781095623962_1i62,1280,832,false,21,female,4,3,null,"<p style=""font-size:60px;color:#fff;margin:0"">+</p>",null,,,,,,,,,,,,,,,,,,,,
,,,,,html-keyboard-response,95,179649,0.0-95.0,14,1,2026-06-10 12:46:56,fac33314ff793864f6ca77dbc392f4f8,45.85.105.118,"Mozilla/5.0 (Macintosh; Intel Mac OS X 10_15_7) AppleWebKit/537.36 (KHTML, like Gecko) Chrome/146.0.0.0 YaBrowser/26.4.0.0 Safari/537.36",desktop,Chrome,146.0.0.0,OS X,10_15_7,null,"ru,en;q=0.9,fr;q=0.8",p_1781095623962_1i62,1280,832,false,21,female,4,3,null,"<div style=""text-align:center""><p style=""color:#fff;font-size:18px;margin-bottom:12px"">Запомните это лицо</p><img src=""real_002.png"" style=""width:256px;height:256px;object-fit:contain;border:3px solid #fff;border-radius:4px;background:#808080""></div>",null,,,,,,,,,,,,,,,,,,,,
,,,,,html-keyboard-response,96,180151,0.0-96.0,14,1,2026-06-10 12:46:56,fac33314ff793864f6ca77dbc392f4f8,45.85.105.118,"Mozilla/5.0 (Macintosh; Intel Mac OS X 10_15_7) AppleWebKit/537.36 (KHTML, like Gecko) Chrome/146.0.0.0 YaBrowser/26.4.0.0 Safari/537.36",desktop,Chrome,146.0.0.0,OS X,10_15_7,null,"ru,en;q=0.9,fr;q=0.8",p_1781095623962_1i62,1280,832,false,21,female,4,3,null,"<p style=""color:#808080;font-size:1px"">.</p>",null,,,,,,,,,,,,,,,,,,,,
,,,,,html-keyboard-response,97,182249,0.0-97.0,14,1,2026-06-10 12:46:56,fac33314ff793864f6ca77dbc392f4f8,45.85.105.118,"Mozilla/5.0 (Macintosh; Intel Mac OS X 10_15_7) AppleWebKit/537.36 (KHTML, like Gecko) Chrome/146.0.0.0 YaBrowser/26.4.0.0 Safari/537.36",desktop,Chrome,146.0.0.0,OS X,10_15_7,null,"ru,en;q=0.9,fr;q=0.8",p_1781095623962_1i62,1280,832,false,21,female,4,3,2097,"<div style=""text-align:center""><img src=""ff_v4_007.png"" style=""max-width:90vw;max-height:72vh;display:block;margin:0 auto""><p style=""color:#fff;font-size:18px;margin-top:16px"">Было ли запомненное лицо в наборе?</p><div class=""keys"" style=""margin-top:12px""><div class=""key"">←<span>НЕ БЫЛО</span></div><div class=""key"">→<span>БЫЛО</span></div></div></div>",arrowright,true,ff_007,face_face,real,8,true,real_002.png,ff_v4_007.png,5,arrowright,1,false,false,true,98,,,,,
,,,,,html-keyboard-response,98,182751,0.0-98.0,14,1,2026-06-10 12:46:56,fac33314ff793864f6ca77dbc392f4f8,45.85.105.118,"Mozilla/5.0 (Macintosh; Intel Mac OS X 10_15_7) AppleWebKit/537.36 (KHTML, like Gecko) Chrome/146.0.0.0 YaBrowser/26.4.0.0 Safari/537.36",desktop,Chrome,146.0.0.0,OS X,10_15_7,null,"ru,en;q=0.9,fr;q=0.8",p_1781095623962_1i62,1280,832,false,21,female,4,3,null,"<p style=""color:#808080;font-size:1px"">.</p>",null,,,,,,,,,,,,,,,,,,,,
,,,,,html-keyboard-response,99,183253,0.0-99.0,14,1,2026-06-10 12:46:56,fac33314ff793864f6ca77dbc392f4f8,45.85.105.118,"Mozilla/5.0 (Macintosh; Intel Mac OS X 10_15_7) AppleWebKit/537.36 (KHTML, like Gecko) Chrome/146.0.0.0 YaBrowser/26.4.0.0 Safari/537.36",desktop,Chrome,146.0.0.0,OS X,10_15_7,null,"ru,en;q=0.9,fr;q=0.8",p_1781095623962_1i62,1280,832,false,21,female,4,3,null,"<p style=""font-size:60px;color:#fff;margin:0"">+</p>",null,,,,,,,,,,,,,,,,,,,,
,,,,,html-keyboard-response,100,184757,0.0-100.0,14,1,2026-06-10 12:46:56,fac33314ff793864f6ca77dbc392f4f8,45.85.105.118,"Mozilla/5.0 (Macintosh; Intel Mac OS X 10_15_7) AppleWebKit/537.36 (KHTML, like Gecko) Chrome/146.0.0.0 YaBrowser/26.4.0.0 Safari/537.36",desktop,Chrome,146.0.0.0,OS X,10_15_7,null,"ru,en;q=0.9,fr;q=0.8",p_1781095623962_1i62,1280,832,false,21,female,4,3,null,"<div style=""text-align:center""><p style=""color:#fff;font-size:18px;margin-bottom:12px"">Запомните это лицо</p><img src=""real_015.png"" style=""width:256px;height:256px;object-fit:contain;border:3px solid #fff;border-radius:4px;background:#808080""></div>",null,,,,,,,,,,,,,,,,,,,,
,,,,,html-keyboard-response,101,185259,0.0-101.0,14,1,2026-06-10 12:46:56,fac33314ff793864f6ca77dbc392f4f8,45.85.105.118,"Mozilla/5.0 (Macintosh; Intel Mac OS X 10_15_7) AppleWebKit/537.36 (KHTML, like Gecko) Chrome/146.0.0.0 YaBrowser/26.4.0.0 Safari/537.36",desktop,Chrome,146.0.0.0,OS X,10_15_7,null,"ru,en;q=0.9,fr;q=0.8",p_1781095623962_1i62,1280,832,false,21,female,4,3,null,"<p style=""color:#808080;font-size:1px"">.</p>",null,,,,,,,,,,,,,,,,,,,,
,,,,,html-keyboard-response,102,186498,0.0-102.0,14,1,2026-06-10 12:46:56,fac33314ff793864f6ca77dbc392f4f8,45.85.105.118,"Mozilla/5.0 (Macintosh; Intel Mac OS X 10_15_7) AppleWebKit/537.36 (KHTML, like Gecko) Chrome/146.0.0.0 YaBrowser/26.4.0.0 Safari/537.36",desktop,Chrome,146.0.0.0,OS X,10_15_7,null,"ru,en;q=0.9,fr;q=0.8",p_1781095623962_1i62,1280,832,false,21,female,4,3,1238,"<div style=""text-align:center""><img src=""ff_v4_028.png"" style=""max-width:90vw;max-height:72vh;display:block;margin:0 auto""><p style=""color:#fff;font-size:18px;margin-top:16px"">Было ли запомненное лицо в наборе?</p><div class=""keys"" style=""margin-top:12px""><div class=""key"">←<span>НЕ БЫЛО</span></div><div class=""key"">→<span>БЫЛО</span></div></div></div>",arrowright,true,ff_028,face_face,real,8,true,real_015.png,ff_v4_028.png,8,arrowright,1,false,false,true,103,,,,,
,,,,,html-keyboard-response,103,186999,0.0-103.0,14,1,2026-06-10 12:46:56,fac33314ff793864f6ca77dbc392f4f8,45.85.105.118,"Mozilla/5.0 (Macintosh; Intel Mac OS X 10_15_7) AppleWebKit/537.36 (KHTML, like Gecko) Chrome/146.0.0.0 YaBrowser/26.4.0.0 Safari/537.36",desktop,Chrome,146.0.0.0,OS X,10_15_7,null,"ru,en;q=0.9,fr;q=0.8",p_1781095623962_1i62,1280,832,false,21,female,4,3,null,"<p style=""color:#808080;font-size:1px"">.</p>",null,,,,,,,,,,,,,,,,,,,,
,,,,,html-keyboard-response,104,187502,0.0-104.0,14,1,2026-06-10 12:46:56,fac33314ff793864f6ca77dbc392f4f8,45.85.105.118,"Mozilla/5.0 (Macintosh; Intel Mac OS X 10_15_7) AppleWebKit/537.36 (KHTML, like Gecko) Chrome/146.0.0.0 YaBrowser/26.4.0.0 Safari/537.36",desktop,Chrome,146.0.0.0,OS X,10_15_7,null,"ru,en;q=0.9,fr;q=0.8",p_1781095623962_1i62,1280,832,false,21,female,4,3,null,"<p style=""font-size:60px;color:#fff;margin:0"">+</p>",null,,,,,,,,,,,,,,,,,,,,
,,,,,html-keyboard-response,105,189004,0.0-105.0,14,1,2026-06-10 12:46:56,fac33314ff793864f6ca77dbc392f4f8,45.85.105.118,"Mozilla/5.0 (Macintosh; Intel Mac OS X 10_15_7) AppleWebKit/537.36 (KHTML, like Gecko) Chrome/146.0.0.0 YaBrowser/26.4.0.0 Safari/537.36",desktop,Chrome,146.0.0.0,OS X,10_15_7,null,"ru,en;q=0.9,fr;q=0.8",p_1781095623962_1i62,1280,832,false,21,female,4,3,null,"<div style=""text-align:center""><p style=""color:#fff;font-size:18px;margin-bottom:12px"">Запомните это лицо</p><img src=""real_002.png"" style=""width:256px;height:256px;object-fit:contain;border:3px solid #fff;border-radius:4px;background:#808080""></div>",null,,,,,,,,,,,,,,,,,,,,
,,,,,html-keyboard-response,106,189506,0.0-106.0,14,1,2026-06-10 12:46:56,fac33314ff793864f6ca77dbc392f4f8,45.85.105.118,"Mozilla/5.0 (Macintosh; Intel Mac OS X 10_15_7) AppleWebKit/537.36 (KHTML, like Gecko) Chrome/146.0.0.0 YaBrowser/26.4.0.0 Safari/537.36",desktop,Chrome,146.0.0.0,OS X,10_15_7,null,"ru,en;q=0.9,fr;q=0.8",p_1781095623962_1i62,1280,832,false,21,female,4,3,null,"<p style=""color:#808080;font-size:1px"">.</p>",null,,,,,,,,,,,,,,,,,,,,
,,,,,html-keyboard-response,107,190493,0.0-107.0,14,1,2026-06-10 12:46:56,fac33314ff793864f6ca77dbc392f4f8,45.85.105.118,"Mozilla/5.0 (Macintosh; Intel Mac OS X 10_15_7) AppleWebKit/537.36 (KHTML, like Gecko) Chrome/146.0.0.0 YaBrowser/26.4.0.0 Safari/537.36",desktop,Chrome,146.0.0.0,OS X,10_15_7,null,"ru,en;q=0.9,fr;q=0.8",p_1781095623962_1i62,1280,832,false,21,female,4,3,986,"<div style=""text-align:center""><img src=""ff_v4_010.png"" style=""max-width:90vw;max-height:72vh;display:block;margin:0 auto""><p style=""color:#fff;font-size:18px;margin-top:16px"">Было ли запомненное лицо в наборе?</p><div class=""keys"" style=""margin-top:12px""><div class=""key"">←<span>НЕ БЫЛО</span></div><div class=""key"">→<span>БЫЛО</span></div></div></div>",arrowleft,true,ff_010,face_face,real,4,false,real_002.png,ff_v4_010.png,,arrowleft,1,false,false,true,108,,,,,
,,,,,html-keyboard-response,108,190995,0.0-108.0,14,1,2026-06-10 12:46:56,fac33314ff793864f6ca77dbc392f4f8,45.85.105.118,"Mozilla/5.0 (Macintosh; Intel Mac OS X 10_15_7) AppleWebKit/537.36 (KHTML, like Gecko) Chrome/146.0.0.0 YaBrowser/26.4.0.0 Safari/537.36",desktop,Chrome,146.0.0.0,OS X,10_15_7,null,"ru,en;q=0.9,fr;q=0.8",p_1781095623962_1i62,1280,832,false,21,female,4,3,null,"<p style=""color:#808080;font-size:1px"">.</p>",null,,,,,,,,,,,,,,,,,,,,
,,,,,html-keyboard-response,109,191497,0.0-109.0,14,1,2026-06-10 12:46:56,fac33314ff793864f6ca77dbc392f4f8,45.85.105.118,"Mozilla/5.0 (Macintosh; Intel Mac OS X 10_15_7) AppleWebKit/537.36 (KHTML, like Gecko) Chrome/146.0.0.0 YaBrowser/26.4.0.0 Safari/537.36",desktop,Chrome,146.0.0.0,OS X,10_15_7,null,"ru,en;q=0.9,fr;q=0.8",p_1781095623962_1i62,1280,832,false,21,female,4,3,null,"<p style=""font-size:60px;color:#fff;margin:0"">+</p>",null,,,,,,,,,,,,,,,,,,,,
,,,,,html-keyboard-response,110,193000,0.0-110.0,14,1,2026-06-10 12:46:56,fac33314ff793864f6ca77dbc392f4f8,45.85.105.118,"Mozilla/5.0 (Macintosh; Intel Mac OS X 10_15_7) AppleWebKit/537.36 (KHTML, like Gecko) Chrome/146.0.0.0 YaBrowser/26.4.0.0 Safari/537.36",desktop,Chrome,146.0.0.0,OS X,10_15_7,null,"ru,en;q=0.9,fr;q=0.8",p_1781095623962_1i62,1280,832,false,21,female,4,3,null,"<div style=""text-align:center""><p style=""color:#fff;font-size:18px;margin-bottom:12px"">Запомните это лицо</p><img src=""ai_006.png"" style=""width:256px;height:256px;object-fit:contain;border:3px solid #fff;border-radius:4px;background:#808080""></div>",null,,,,,,,,,,,,,,,,,,,,
,,,,,html-keyboard-response,111,193502,0.0-111.0,14,1,2026-06-10 12:46:56,fac33314ff793864f6ca77dbc392f4f8,45.85.105.118,"Mozilla/5.0 (Macintosh; Intel Mac OS X 10_15_7) AppleWebKit/537.36 (KHTML, like Gecko) Chrome/146.0.0.0 YaBrowser/26.4.0.0 Safari/537.36",desktop,Chrome,146.0.0.0,OS X,10_15_7,null,"ru,en;q=0.9,fr;q=0.8",p_1781095623962_1i62,1280,832,false,21,female,4,3,null,"<p style=""color:#808080;font-size:1px"">.</p>",null,,,,,,,,,,,,,,,,,,,,
,,,,,html-keyboard-response,112,196469,0.0-112.0,14,1,2026-06-10 12:46:56,fac33314ff793864f6ca77dbc392f4f8,45.85.105.118,"Mozilla/5.0 (Macintosh; Intel Mac OS X 10_15_7) AppleWebKit/537.36 (KHTML, like Gecko) Chrome/146.0.0.0 YaBrowser/26.4.0.0 Safari/537.36",desktop,Chrome,146.0.0.0,OS X,10_15_7,null,"ru,en;q=0.9,fr;q=0.8",p_1781095623962_1i62,1280,832,false,21,female,4,3,2965,"<div style=""text-align:center""><img src=""ff_v4_038.png"" style=""max-width:90vw;max-height:72vh;display:block;margin:0 auto""><p style=""color:#fff;font-size:18px;margin-top:16px"">Было ли запомненное лицо в наборе?</p><div class=""keys"" style=""margin-top:12px""><div class=""key"">←<span>НЕ БЫЛО</span></div><div class=""key"">→<span>БЫЛО</span></div></div></div>",arrowleft,true,ff_038,face_face,ai,8,false,ai_006.png,ff_v4_038.png,,arrowleft,1,false,false,true,113,,,,,
,,,,,html-keyboard-response,113,196971,0.0-113.0,14,1,2026-06-10 12:46:56,fac33314ff793864f6ca77dbc392f4f8,45.85.105.118,"Mozilla/5.0 (Macintosh; Intel Mac OS X 10_15_7) AppleWebKit/537.36 (KHTML, like Gecko) Chrome/146.0.0.0 YaBrowser/26.4.0.0 Safari/537.36",desktop,Chrome,146.0.0.0,OS X,10_15_7,null,"ru,en;q=0.9,fr;q=0.8",p_1781095623962_1i62,1280,832,false,21,female,4,3,null,"<p style=""color:#808080;font-size:1px"">.</p>",null,,,,,,,,,,,,,,,,,,,,
,,,,,html-keyboard-response,114,197473,0.0-114.0,14,1,2026-06-10 12:46:56,fac33314ff793864f6ca77dbc392f4f8,45.85.105.118,"Mozilla/5.0 (Macintosh; Intel Mac OS X 10_15_7) AppleWebKit/537.36 (KHTML, like Gecko) Chrome/146.0.0.0 YaBrowser/26.4.0.0 Safari/537.36",desktop,Chrome,146.0.0.0,OS X,10_15_7,null,"ru,en;q=0.9,fr;q=0.8",p_1781095623962_1i62,1280,832,false,21,female,4,3,null,"<p style=""font-size:60px;color:#fff;margin:0"">+</p>",null,,,,,,,,,,,,,,,,,,,,
,,,,,html-keyboard-response,115,198976,0.0-115.0,14,1,2026-06-10 12:46:56,fac33314ff793864f6ca77dbc392f4f8,45.85.105.118,"Mozilla/5.0 (Macintosh; Intel Mac OS X 10_15_7) AppleWebKit/537.36 (KHTML, like Gecko) Chrome/146.0.0.0 YaBrowser/26.4.0.0 Safari/537.36",desktop,Chrome,146.0.0.0,OS X,10_15_7,null,"ru,en;q=0.9,fr;q=0.8",p_1781095623962_1i62,1280,832,false,21,female,4,3,null,"<div style=""text-align:center""><p style=""color:#fff;font-size:18px;margin-bottom:12px"">Запомните это лицо</p><img src=""ai_003.png"" style=""width:256px;height:256px;object-fit:contain;border:3px solid #fff;border-radius:4px;background:#808080""></div>",null,,,,,,,,,,,,,,,,,,,,
,,,,,html-keyboard-response,116,199478,0.0-116.0,14,1,2026-06-10 12:46:56,fac33314ff793864f6ca77dbc392f4f8,45.85.105.118,"Mozilla/5.0 (Macintosh; Intel Mac OS X 10_15_7) AppleWebKit/537.36 (KHTML, like Gecko) Chrome/146.0.0.0 YaBrowser/26.4.0.0 Safari/537.36",desktop,Chrome,146.0.0.0,OS X,10_15_7,null,"ru,en;q=0.9,fr;q=0.8",p_1781095623962_1i62,1280,832,false,21,female,4,3,null,"<p style=""color:#808080;font-size:1px"">.</p>",null,,,,,,,,,,,,,,,,,,,,
,,,,,html-keyboard-response,117,200204,0.0-117.0,14,1,2026-06-10 12:46:56,fac33314ff793864f6ca77dbc392f4f8,45.85.105.118,"Mozilla/5.0 (Macintosh; Intel Mac OS X 10_15_7) AppleWebKit/537.36 (KHTML, like Gecko) Chrome/146.0.0.0 YaBrowser/26.4.0.0 Safari/537.36",desktop,Chrome,146.0.0.0,OS X,10_15_7,null,"ru,en;q=0.9,fr;q=0.8",p_1781095623962_1i62,1280,832,false,21,female,4,3,724,"<div style=""text-align:center""><img src=""ff_v4_032.png"" style=""max-width:90vw;max-height:72vh;display:block;margin:0 auto""><p style=""color:#fff;font-size:18px;margin-top:16px"">Было ли запомненное лицо в наборе?</p><div class=""keys"" style=""margin-top:12px""><div class=""key"">←<span>НЕ БЫЛО</span></div><div class=""key"">→<span>БЫЛО</span></div></div></div>",arrowright,true,ff_032,face_face,ai,4,true,ai_003.png,ff_v4_032.png,4,arrowright,1,false,false,true,118,,,,,
,,,,,html-keyboard-response,118,200705,0.0-118.0,14,1,2026-06-10 12:46:56,fac33314ff793864f6ca77dbc392f4f8,45.85.105.118,"Mozilla/5.0 (Macintosh; Intel Mac OS X 10_15_7) AppleWebKit/537.36 (KHTML, like Gecko) Chrome/146.0.0.0 YaBrowser/26.4.0.0 Safari/537.36",desktop,Chrome,146.0.0.0,OS X,10_15_7,null,"ru,en;q=0.9,fr;q=0.8",p_1781095623962_1i62,1280,832,false,21,female,4,3,null,"<p style=""color:#808080;font-size:1px"">.</p>",null,,,,,,,,,,,,,,,,,,,,
,,,,,html-keyboard-response,119,201208,0.0-119.0,14,1,2026-06-10 12:46:56,fac33314ff793864f6ca77dbc392f4f8,45.85.105.118,"Mozilla/5.0 (Macintosh; Intel Mac OS X 10_15_7) AppleWebKit/537.36 (KHTML, like Gecko) Chrome/146.0.0.0 YaBrowser/26.4.0.0 Safari/537.36",desktop,Chrome,146.0.0.0,OS X,10_15_7,null,"ru,en;q=0.9,fr;q=0.8",p_1781095623962_1i62,1280,832,false,21,female,4,3,null,"<p style=""font-size:60px;color:#fff;margin:0"">+</p>",null,,,,,,,,,,,,,,,,,,,,
,,,,,html-keyboard-response,120,202711,0.0-120.0,14,1,2026-06-10 12:46:56,fac33314ff793864f6ca77dbc392f4f8,45.85.105.118,"Mozilla/5.0 (Macintosh; Intel Mac OS X 10_15_7) AppleWebKit/537.36 (KHTML, like Gecko) Chrome/146.0.0.0 YaBrowser/26.4.0.0 Safari/537.36",desktop,Chrome,146.0.0.0,OS X,10_15_7,null,"ru,en;q=0.9,fr;q=0.8",p_1781095623962_1i62,1280,832,false,21,female,4,3,null,"<div style=""text-align:center""><p style=""color:#fff;font-size:18px;margin-bottom:12px"">Запомните это лицо</p><img src=""ai_006.png"" style=""width:256px;height:256px;object-fit:contain;border:3px solid #fff;border-radius:4px;background:#808080""></div>",null,,,,,,,,,,,,,,,,,,,,
,,,,,html-keyboard-response,121,203213,0.0-121.0,14,1,2026-06-10 12:46:56,fac33314ff793864f6ca77dbc392f4f8,45.85.105.118,"Mozilla/5.0 (Macintosh; Intel Mac OS X 10_15_7) AppleWebKit/537.36 (KHTML, like Gecko) Chrome/146.0.0.0 YaBrowser/26.4.0.0 Safari/537.36",desktop,Chrome,146.0.0.0,OS X,10_15_7,null,"ru,en;q=0.9,fr;q=0.8",p_1781095623962_1i62,1280,832,false,21,female,4,3,null,"<p style=""color:#808080;font-size:1px"">.</p>",null,,,,,,,,,,,,,,,,,,,,
,,,,,html-keyboard-response,122,205152,0.0-122.0,14,1,2026-06-10 12:46:56,fac33314ff793864f6ca77dbc392f4f8,45.85.105.118,"Mozilla/5.0 (Macintosh; Intel Mac OS X 10_15_7) AppleWebKit/537.36 (KHTML, like Gecko) Chrome/146.0.0.0 YaBrowser/26.4.0.0 Safari/537.36",desktop,Chrome,146.0.0.0,OS X,10_15_7,null,"ru,en;q=0.9,fr;q=0.8",p_1781095623962_1i62,1280,832,false,21,female,4,3,1937,"<div style=""text-align:center""><img src=""ff_v4_006.png"" style=""max-width:90vw;max-height:72vh;display:block;margin:0 auto""><p style=""color:#fff;font-size:18px;margin-top:16px"">Было ли запомненное лицо в наборе?</p><div class=""keys"" style=""margin-top:12px""><div class=""key"">←<span>НЕ БЫЛО</span></div><div class=""key"">→<span>БЫЛО</span></div></div></div>",arrowleft,true,ff_006,face_face,ai,4,true,ai_006.png,ff_v4_006.png,1,arrowright,1,false,false,false,123,,,,,
,,,,,html-keyboard-response,123,205653,0.0-123.0,14,1,2026-06-10 12:46:56,fac33314ff793864f6ca77dbc392f4f8,45.85.105.118,"Mozilla/5.0 (Macintosh; Intel Mac OS X 10_15_7) AppleWebKit/537.36 (KHTML, like Gecko) Chrome/146.0.0.0 YaBrowser/26.4.0.0 Safari/537.36",desktop,Chrome,146.0.0.0,OS X,10_15_7,null,"ru,en;q=0.9,fr;q=0.8",p_1781095623962_1i62,1280,832,false,21,female,4,3,null,"<p style=""color:#808080;font-size:1px"">.</p>",null,,,,,,,,,,,,,,,,,,,,
,,,,,html-keyboard-response,124,206155,0.0-124.0,14,1,2026-06-10 12:46:56,fac33314ff793864f6ca77dbc392f4f8,45.85.105.118,"Mozilla/5.0 (Macintosh; Intel Mac OS X 10_15_7) AppleWebKit/537.36 (KHTML, like Gecko) Chrome/146.0.0.0 YaBrowser/26.4.0.0 Safari/537.36",desktop,Chrome,146.0.0.0,OS X,10_15_7,null,"ru,en;q=0.9,fr;q=0.8",p_1781095623962_1i62,1280,832,false,21,female,4,3,null,"<p style=""font-size:60px;color:#fff;margin:0"">+</p>",null,,,,,,,,,,,,,,,,,,,,
,,,,,html-keyboard-response,125,207658,0.0-125.0,14,1,2026-06-10 12:46:56,fac33314ff793864f6ca77dbc392f4f8,45.85.105.118,"Mozilla/5.0 (Macintosh; Intel Mac OS X 10_15_7) AppleWebKit/537.36 (KHTML, like Gecko) Chrome/146.0.0.0 YaBrowser/26.4.0.0 Safari/537.36",desktop,Chrome,146.0.0.0,OS X,10_15_7,null,"ru,en;q=0.9,fr;q=0.8",p_1781095623962_1i62,1280,832,false,21,female,4,3,null,"<div style=""text-align:center""><p style=""color:#fff;font-size:18px;margin-bottom:12px"">Запомните это лицо</p><img src=""real_020.png"" style=""width:256px;height:256px;object-fit:contain;border:3px solid #fff;border-radius:4px;background:#808080""></div>",null,,,,,,,,,,,,,,,,,,,,
,,,,,html-keyboard-response,126,208160,0.0-126.0,14,1,2026-06-10 12:46:56,fac33314ff793864f6ca77dbc392f4f8,45.85.105.118,"Mozilla/5.0 (Macintosh; Intel Mac OS X 10_15_7) AppleWebKit/537.36 (KHTML, like Gecko) Chrome/146.0.0.0 YaBrowser/26.4.0.0 Safari/537.36",desktop,Chrome,146.0.0.0,OS X,10_15_7,null,"ru,en;q=0.9,fr;q=0.8",p_1781095623962_1i62,1280,832,false,21,female,4,3,null,"<p style=""color:#808080;font-size:1px"">.</p>",null,,,,,,,,,,,,,,,,,,,,
,,,,,html-keyboard-response,127,209127,0.0-127.0,14,1,2026-06-10 12:46:56,fac33314ff793864f6ca77dbc392f4f8,45.85.105.118,"Mozilla/5.0 (Macintosh; Intel Mac OS X 10_15_7) AppleWebKit/537.36 (KHTML, like Gecko) Chrome/146.0.0.0 YaBrowser/26.4.0.0 Safari/537.36",desktop,Chrome,146.0.0.0,OS X,10_15_7,null,"ru,en;q=0.9,fr;q=0.8",p_1781095623962_1i62,1280,832,false,21,female,4,3,965,"<div style=""text-align:center""><img src=""ff_v4_030.png"" style=""max-width:90vw;max-height:72vh;display:block;margin:0 auto""><p style=""color:#fff;font-size:18px;margin-top:16px"">Было ли запомненное лицо в наборе?</p><div class=""keys"" style=""margin-top:12px""><div class=""key"">←<span>НЕ БЫЛО</span></div><div class=""key"">→<span>БЫЛО</span></div></div></div>",arrowright,true,ff_030,face_face,real,8,true,real_020.png,ff_v4_030.png,7,arrowright,1,false,false,true,128,,,,,
,,,,,html-keyboard-response,128,209628,0.0-128.0,14,1,2026-06-10 12:46:56,fac33314ff793864f6ca77dbc392f4f8,45.85.105.118,"Mozilla/5.0 (Macintosh; Intel Mac OS X 10_15_7) AppleWebKit/537.36 (KHTML, like Gecko) Chrome/146.0.0.0 YaBrowser/26.4.0.0 Safari/537.36",desktop,Chrome,146.0.0.0,OS X,10_15_7,null,"ru,en;q=0.9,fr;q=0.8",p_1781095623962_1i62,1280,832,false,21,female,4,3,null,"<p style=""color:#808080;font-size:1px"">.</p>",null,,,,,,,,,,,,,,,,,,,,
,,,,,html-keyboard-response,129,210131,0.0-129.0,14,1,2026-06-10 12:46:56,fac33314ff793864f6ca77dbc392f4f8,45.85.105.118,"Mozilla/5.0 (Macintosh; Intel Mac OS X 10_15_7) AppleWebKit/537.36 (KHTML, like Gecko) Chrome/146.0.0.0 YaBrowser/26.4.0.0 Safari/537.36",desktop,Chrome,146.0.0.0,OS X,10_15_7,null,"ru,en;q=0.9,fr;q=0.8",p_1781095623962_1i62,1280,832,false,21,female,4,3,null,"<p style=""font-size:60px;color:#fff;margin:0"">+</p>",null,,,,,,,,,,,,,,,,,,,,
,,,,,html-keyboard-response,130,211634,0.0-130.0,14,1,2026-06-10 12:46:56,fac33314ff793864f6ca77dbc392f4f8,45.85.105.118,"Mozilla/5.0 (Macintosh; Intel Mac OS X 10_15_7) AppleWebKit/537.36 (KHTML, like Gecko) Chrome/146.0.0.0 YaBrowser/26.4.0.0 Safari/537.36",desktop,Chrome,146.0.0.0,OS X,10_15_7,null,"ru,en;q=0.9,fr;q=0.8",p_1781095623962_1i62,1280,832,false,21,female,4,3,null,"<div style=""text-align:center""><p style=""color:#fff;font-size:18px;margin-bottom:12px"">Запомните это лицо</p><img src=""real_020.png"" style=""width:256px;height:256px;object-fit:contain;border:3px solid #fff;border-radius:4px;background:#808080""></div>",null,,,,,,,,,,,,,,,,,,,,
,,,,,html-keyboard-response,131,212135,0.0-131.0,14,1,2026-06-10 12:46:56,fac33314ff793864f6ca77dbc392f4f8,45.85.105.118,"Mozilla/5.0 (Macintosh; Intel Mac OS X 10_15_7) AppleWebKit/537.36 (KHTML, like Gecko) Chrome/146.0.0.0 YaBrowser/26.4.0.0 Safari/537.36",desktop,Chrome,146.0.0.0,OS X,10_15_7,null,"ru,en;q=0.9,fr;q=0.8",p_1781095623962_1i62,1280,832,false,21,female,4,3,null,"<p style=""color:#808080;font-size:1px"">.</p>",null,,,,,,,,,,,,,,,,,,,,
,,,,,html-keyboard-response,132,213283,0.0-132.0,14,1,2026-06-10 12:46:56,fac33314ff793864f6ca77dbc392f4f8,45.85.105.118,"Mozilla/5.0 (Macintosh; Intel Mac OS X 10_15_7) AppleWebKit/537.36 (KHTML, like Gecko) Chrome/146.0.0.0 YaBrowser/26.4.0.0 Safari/537.36",desktop,Chrome,146.0.0.0,OS X,10_15_7,null,"ru,en;q=0.9,fr;q=0.8",p_1781095623962_1i62,1280,832,false,21,female,4,3,1147,"<div style=""text-align:center""><img src=""ff_v4_036.png"" style=""max-width:90vw;max-height:72vh;display:block;margin:0 auto""><p style=""color:#fff;font-size:18px;margin-top:16px"">Было ли запомненное лицо в наборе?</p><div class=""keys"" style=""margin-top:12px""><div class=""key"">←<span>НЕ БЫЛО</span></div><div class=""key"">→<span>БЫЛО</span></div></div></div>",arrowleft,true,ff_036,face_face,real,4,false,real_020.png,ff_v4_036.png,,arrowleft,1,false,false,true,133,,,,,
,,,,,html-keyboard-response,133,213784,0.0-133.0,14,1,2026-06-10 12:46:56,fac33314ff793864f6ca77dbc392f4f8,45.85.105.118,"Mozilla/5.0 (Macintosh; Intel Mac OS X 10_15_7) AppleWebKit/537.36 (KHTML, like Gecko) Chrome/146.0.0.0 YaBrowser/26.4.0.0 Safari/537.36",desktop,Chrome,146.0.0.0,OS X,10_15_7,null,"ru,en;q=0.9,fr;q=0.8",p_1781095623962_1i62,1280,832,false,21,female,4,3,null,"<p style=""color:#808080;font-size:1px"">.</p>",null,,,,,,,,,,,,,,,,,,,,
,,,,,html-keyboard-response,134,214286,0.0-134.0,14,1,2026-06-10 12:46:56,fac33314ff793864f6ca77dbc392f4f8,45.85.105.118,"Mozilla/5.0 (Macintosh; Intel Mac OS X 10_15_7) AppleWebKit/537.36 (KHTML, like Gecko) Chrome/146.0.0.0 YaBrowser/26.4.0.0 Safari/537.36",desktop,Chrome,146.0.0.0,OS X,10_15_7,null,"ru,en;q=0.9,fr;q=0.8",p_1781095623962_1i62,1280,832,false,21,female,4,3,null,"<p style=""font-size:60px;color:#fff;margin:0"">+</p>",null,,,,,,,,,,,,,,,,,,,,
,,,,,html-keyboard-response,135,215789,0.0-135.0,14,1,2026-06-10 12:46:56,fac33314ff793864f6ca77dbc392f4f8,45.85.105.118,"Mozilla/5.0 (Macintosh; Intel Mac OS X 10_15_7) AppleWebKit/537.36 (KHTML, like Gecko) Chrome/146.0.0.0 YaBrowser/26.4.0.0 Safari/537.36",desktop,Chrome,146.0.0.0,OS X,10_15_7,null,"ru,en;q=0.9,fr;q=0.8",p_1781095623962_1i62,1280,832,false,21,female,4,3,null,"<div style=""text-align:center""><p style=""color:#fff;font-size:18px;margin-bottom:12px"">Запомните это лицо</p><img src=""ai_003.png"" style=""width:256px;height:256px;object-fit:contain;border:3px solid #fff;border-radius:4px;background:#808080""></div>",null,,,,,,,,,,,,,,,,,,,,
,,,,,html-keyboard-response,136,216290,0.0-136.0,14,1,2026-06-10 12:46:56,fac33314ff793864f6ca77dbc392f4f8,45.85.105.118,"Mozilla/5.0 (Macintosh; Intel Mac OS X 10_15_7) AppleWebKit/537.36 (KHTML, like Gecko) Chrome/146.0.0.0 YaBrowser/26.4.0.0 Safari/537.36",desktop,Chrome,146.0.0.0,OS X,10_15_7,null,"ru,en;q=0.9,fr;q=0.8",p_1781095623962_1i62,1280,832,false,21,female,4,3,null,"<p style=""color:#808080;font-size:1px"">.</p>",null,,,,,,,,,,,,,,,,,,,,
,,,,,html-keyboard-response,137,218178,0.0-137.0,14,1,2026-06-10 12:46:56,fac33314ff793864f6ca77dbc392f4f8,45.85.105.118,"Mozilla/5.0 (Macintosh; Intel Mac OS X 10_15_7) AppleWebKit/537.36 (KHTML, like Gecko) Chrome/146.0.0.0 YaBrowser/26.4.0.0 Safari/537.36",desktop,Chrome,146.0.0.0,OS X,10_15_7,null,"ru,en;q=0.9,fr;q=0.8",p_1781095623962_1i62,1280,832,false,21,female,4,3,1886,"<div style=""text-align:center""><img src=""ff_v4_033.png"" style=""max-width:90vw;max-height:72vh;display:block;margin:0 auto""><p style=""color:#fff;font-size:18px;margin-top:16px"">Было ли запомненное лицо в наборе?</p><div class=""keys"" style=""margin-top:12px""><div class=""key"">←<span>НЕ БЫЛО</span></div><div class=""key"">→<span>БЫЛО</span></div></div></div>",arrowleft,true,ff_033,face_face,ai,8,false,ai_003.png,ff_v4_033.png,,arrowleft,1,false,false,true,138,,,,,
,,,,,html-keyboard-response,138,218680,0.0-138.0,14,1,2026-06-10 12:46:56,fac33314ff793864f6ca77dbc392f4f8,45.85.105.118,"Mozilla/5.0 (Macintosh; Intel Mac OS X 10_15_7) AppleWebKit/537.36 (KHTML, like Gecko) Chrome/146.0.0.0 YaBrowser/26.4.0.0 Safari/537.36",desktop,Chrome,146.0.0.0,OS X,10_15_7,null,"ru,en;q=0.9,fr;q=0.8",p_1781095623962_1i62,1280,832,false,21,female,4,3,null,"<p style=""color:#808080;font-size:1px"">.</p>",null,,,,,,,,,,,,,,,,,,,,
,,,,,html-keyboard-response,139,219182,0.0-139.0,14,1,2026-06-10 12:46:56,fac33314ff793864f6ca77dbc392f4f8,45.85.105.118,"Mozilla/5.0 (Macintosh; Intel Mac OS X 10_15_7) AppleWebKit/537.36 (KHTML, like Gecko) Chrome/146.0.0.0 YaBrowser/26.4.0.0 Safari/537.36",desktop,Chrome,146.0.0.0,OS X,10_15_7,null,"ru,en;q=0.9,fr;q=0.8",p_1781095623962_1i62,1280,832,false,21,female,4,3,null,"<p style=""font-size:60px;color:#fff;margin:0"">+</p>",null,,,,,,,,,,,,,,,,,,,,
,,,,,html-keyboard-response,140,220685,0.0-140.0,14,1,2026-06-10 12:46:56,fac33314ff793864f6ca77dbc392f4f8,45.85.105.118,"Mozilla/5.0 (Macintosh; Intel Mac OS X 10_15_7) AppleWebKit/537.36 (KHTML, like Gecko) Chrome/146.0.0.0 YaBrowser/26.4.0.0 Safari/537.36",desktop,Chrome,146.0.0.0,OS X,10_15_7,null,"ru,en;q=0.9,fr;q=0.8",p_1781095623962_1i62,1280,832,false,21,female,4,3,null,"<div style=""text-align:center""><p style=""color:#fff;font-size:18px;margin-bottom:12px"">Запомните это лицо</p><img src=""real_033.png"" style=""width:256px;height:256px;object-fit:contain;border:3px solid #fff;border-radius:4px;background:#808080""></div>",null,,,,,,,,,,,,,,,,,,,,
,,,,,html-keyboard-response,141,221187,0.0-141.0,14,1,2026-06-10 12:46:56,fac33314ff793864f6ca77dbc392f4f8,45.85.105.118,"Mozilla/5.0 (Macintosh; Intel Mac OS X 10_15_7) AppleWebKit/537.36 (KHTML, like Gecko) Chrome/146.0.0.0 YaBrowser/26.4.0.0 Safari/537.36",desktop,Chrome,146.0.0.0,OS X,10_15_7,null,"ru,en;q=0.9,fr;q=0.8",p_1781095623962_1i62,1280,832,false,21,female,4,3,null,"<p style=""color:#808080;font-size:1px"">.</p>",null,,,,,,,,,,,,,,,,,,,,
,,,,,html-keyboard-response,142,222089,0.0-142.0,14,1,2026-06-10 12:46:56,fac33314ff793864f6ca77dbc392f4f8,45.85.105.118,"Mozilla/5.0 (Macintosh; Intel Mac OS X 10_15_7) AppleWebKit/537.36 (KHTML, like Gecko) Chrome/146.0.0.0 YaBrowser/26.4.0.0 Safari/537.36",desktop,Chrome,146.0.0.0,OS X,10_15_7,null,"ru,en;q=0.9,fr;q=0.8",p_1781095623962_1i62,1280,832,false,21,female,4,3,900,"<div style=""text-align:center""><img src=""ff_v4_001.png"" style=""max-width:90vw;max-height:72vh;display:block;margin:0 auto""><p style=""color:#fff;font-size:18px;margin-top:16px"">Было ли запомненное лицо в наборе?</p><div class=""keys"" style=""margin-top:12px""><div class=""key"">←<span>НЕ БЫЛО</span></div><div class=""key"">→<span>БЫЛО</span></div></div></div>",arrowright,true,ff_001,face_face,real,4,true,real_033.png,ff_v4_001.png,1,arrowright,1,false,false,true,143,,,,,
,,,,,html-keyboard-response,143,222590,0.0-143.0,14,1,2026-06-10 12:46:56,fac33314ff793864f6ca77dbc392f4f8,45.85.105.118,"Mozilla/5.0 (Macintosh; Intel Mac OS X 10_15_7) AppleWebKit/537.36 (KHTML, like Gecko) Chrome/146.0.0.0 YaBrowser/26.4.0.0 Safari/537.36",desktop,Chrome,146.0.0.0,OS X,10_15_7,null,"ru,en;q=0.9,fr;q=0.8",p_1781095623962_1i62,1280,832,false,21,female,4,3,null,"<p style=""color:#808080;font-size:1px"">.</p>",null,,,,,,,,,,,,,,,,,,,,
,,,,,html-keyboard-response,144,223092,0.0-144.0,14,1,2026-06-10 12:46:56,fac33314ff793864f6ca77dbc392f4f8,45.85.105.118,"Mozilla/5.0 (Macintosh; Intel Mac OS X 10_15_7) AppleWebKit/537.36 (KHTML, like Gecko) Chrome/146.0.0.0 YaBrowser/26.4.0.0 Safari/537.36",desktop,Chrome,146.0.0.0,OS X,10_15_7,null,"ru,en;q=0.9,fr;q=0.8",p_1781095623962_1i62,1280,832,false,21,female,4,3,null,"<p style=""font-size:60px;color:#fff;margin:0"">+</p>",null,,,,,,,,,,,,,,,,,,,,
,,,,,html-keyboard-response,145,224594,0.0-145.0,14,1,2026-06-10 12:46:56,fac33314ff793864f6ca77dbc392f4f8,45.85.105.118,"Mozilla/5.0 (Macintosh; Intel Mac OS X 10_15_7) AppleWebKit/537.36 (KHTML, like Gecko) Chrome/146.0.0.0 YaBrowser/26.4.0.0 Safari/537.36",desktop,Chrome,146.0.0.0,OS X,10_15_7,null,"ru,en;q=0.9,fr;q=0.8",p_1781095623962_1i62,1280,832,false,21,female,4,3,null,"<div style=""text-align:center""><p style=""color:#fff;font-size:18px;margin-bottom:12px"">Запомните это лицо</p><img src=""real_010.png"" style=""width:256px;height:256px;object-fit:contain;border:3px solid #fff;border-radius:4px;background:#808080""></div>",null,,,,,,,,,,,,,,,,,,,,
,,,,,html-keyboard-response,146,225096,0.0-146.0,14,1,2026-06-10 12:46:56,fac33314ff793864f6ca77dbc392f4f8,45.85.105.118,"Mozilla/5.0 (Macintosh; Intel Mac OS X 10_15_7) AppleWebKit/537.36 (KHTML, like Gecko) Chrome/146.0.0.0 YaBrowser/26.4.0.0 Safari/537.36",desktop,Chrome,146.0.0.0,OS X,10_15_7,null,"ru,en;q=0.9,fr;q=0.8",p_1781095623962_1i62,1280,832,false,21,female,4,3,null,"<p style=""color:#808080;font-size:1px"">.</p>",null,,,,,,,,,,,,,,,,,,,,
,,,,,html-keyboard-response,147,226739,0.0-147.0,14,1,2026-06-10 12:46:56,fac33314ff793864f6ca77dbc392f4f8,45.85.105.118,"Mozilla/5.0 (Macintosh; Intel Mac OS X 10_15_7) AppleWebKit/537.36 (KHTML, like Gecko) Chrome/146.0.0.0 YaBrowser/26.4.0.0 Safari/537.36",desktop,Chrome,146.0.0.0,OS X,10_15_7,null,"ru,en;q=0.9,fr;q=0.8",p_1781095623962_1i62,1280,832,false,21,female,4,3,1642,"<div style=""text-align:center""><img src=""ff_v4_024.png"" style=""max-width:90vw;max-height:72vh;display:block;margin:0 auto""><p style=""color:#fff;font-size:18px;margin-top:16px"">Было ли запомненное лицо в наборе?</p><div class=""keys"" style=""margin-top:12px""><div class=""key"">←<span>НЕ БЫЛО</span></div><div class=""key"">→<span>БЫЛО</span></div></div></div>",arrowleft,true,ff_024,face_face,real,4,false,real_010.png,ff_v4_024.png,,arrowleft,1,false,false,true,148,,,,,
,,,,,html-keyboard-response,148,227241,0.0-148.0,14,1,2026-06-10 12:46:56,fac33314ff793864f6ca77dbc392f4f8,45.85.105.118,"Mozilla/5.0 (Macintosh; Intel Mac OS X 10_15_7) AppleWebKit/537.36 (KHTML, like Gecko) Chrome/146.0.0.0 YaBrowser/26.4.0.0 Safari/537.36",desktop,Chrome,146.0.0.0,OS X,10_15_7,null,"ru,en;q=0.9,fr;q=0.8",p_1781095623962_1i62,1280,832,false,21,female,4,3,null,"<p style=""color:#808080;font-size:1px"">.</p>",null,,,,,,,,,,,,,,,,,,,,
,,,,,html-keyboard-response,149,227743,0.0-149.0,14,1,2026-06-10 12:46:56,fac33314ff793864f6ca77dbc392f4f8,45.85.105.118,"Mozilla/5.0 (Macintosh; Intel Mac OS X 10_15_7) AppleWebKit/537.36 (KHTML, like Gecko) Chrome/146.0.0.0 YaBrowser/26.4.0.0 Safari/537.36",desktop,Chrome,146.0.0.0,OS X,10_15_7,null,"ru,en;q=0.9,fr;q=0.8",p_1781095623962_1i62,1280,832,false,21,female,4,3,null,"<p style=""font-size:60px;color:#fff;margin:0"">+</p>",null,,,,,,,,,,,,,,,,,,,,
,,,,,html-keyboard-response,150,229246,0.0-150.0,14,1,2026-06-10 12:46:56,fac33314ff793864f6ca77dbc392f4f8,45.85.105.118,"Mozilla/5.0 (Macintosh; Intel Mac OS X 10_15_7) AppleWebKit/537.36 (KHTML, like Gecko) Chrome/146.0.0.0 YaBrowser/26.4.0.0 Safari/537.36",desktop,Chrome,146.0.0.0,OS X,10_15_7,null,"ru,en;q=0.9,fr;q=0.8",p_1781095623962_1i62,1280,832,false,21,female,4,3,null,"<div style=""text-align:center""><p style=""color:#fff;font-size:18px;margin-bottom:12px"">Запомните это лицо</p><img src=""real_033.png"" style=""width:256px;height:256px;object-fit:contain;border:3px solid #fff;border-radius:4px;background:#808080""></div>",null,,,,,,,,,,,,,,,,,,,,
,,,,,html-keyboard-response,151,229748,0.0-151.0,14,1,2026-06-10 12:46:56,fac33314ff793864f6ca77dbc392f4f8,45.85.105.118,"Mozilla/5.0 (Macintosh; Intel Mac OS X 10_15_7) AppleWebKit/537.36 (KHTML, like Gecko) Chrome/146.0.0.0 YaBrowser/26.4.0.0 Safari/537.36",desktop,Chrome,146.0.0.0,OS X,10_15_7,null,"ru,en;q=0.9,fr;q=0.8",p_1781095623962_1i62,1280,832,false,21,female,4,3,null,"<p style=""color:#808080;font-size:1px"">.</p>",null,,,,,,,,,,,,,,,,,,,,
,,,,,html-keyboard-response,152,232620,0.0-152.0,14,1,2026-06-10 12:46:56,fac33314ff793864f6ca77dbc392f4f8,45.85.105.118,"Mozilla/5.0 (Macintosh; Intel Mac OS X 10_15_7) AppleWebKit/537.36 (KHTML, like Gecko) Chrome/146.0.0.0 YaBrowser/26.4.0.0 Safari/537.36",desktop,Chrome,146.0.0.0,OS X,10_15_7,null,"ru,en;q=0.9,fr;q=0.8",p_1781095623962_1i62,1280,832,false,21,female,4,3,2871,"<div style=""text-align:center""><img src=""ff_v4_039.png"" style=""max-width:90vw;max-height:72vh;display:block;margin:0 auto""><p style=""color:#fff;font-size:18px;margin-top:16px"">Было ли запомненное лицо в наборе?</p><div class=""keys"" style=""margin-top:12px""><div class=""key"">←<span>НЕ БЫЛО</span></div><div class=""key"">→<span>БЫЛО</span></div></div></div>",arrowleft,true,ff_039,face_face,real,8,true,real_033.png,ff_v4_039.png,5,arrowright,1,false,false,false,153,,,,,
,,,,,html-keyboard-response,153,233122,0.0-153.0,14,1,2026-06-10 12:46:56,fac33314ff793864f6ca77dbc392f4f8,45.85.105.118,"Mozilla/5.0 (Macintosh; Intel Mac OS X 10_15_7) AppleWebKit/537.36 (KHTML, like Gecko) Chrome/146.0.0.0 YaBrowser/26.4.0.0 Safari/537.36",desktop,Chrome,146.0.0.0,OS X,10_15_7,null,"ru,en;q=0.9,fr;q=0.8",p_1781095623962_1i62,1280,832,false,21,female,4,3,null,"<p style=""color:#808080;font-size:1px"">.</p>",null,,,,,,,,,,,,,,,,,,,,
,,,,,html-keyboard-response,154,233624,0.0-154.0,14,1,2026-06-10 12:46:56,fac33314ff793864f6ca77dbc392f4f8,45.85.105.118,"Mozilla/5.0 (Macintosh; Intel Mac OS X 10_15_7) AppleWebKit/537.36 (KHTML, like Gecko) Chrome/146.0.0.0 YaBrowser/26.4.0.0 Safari/537.36",desktop,Chrome,146.0.0.0,OS X,10_15_7,null,"ru,en;q=0.9,fr;q=0.8",p_1781095623962_1i62,1280,832,false,21,female,4,3,null,"<p style=""font-size:60px;color:#fff;margin:0"">+</p>",null,,,,,,,,,,,,,,,,,,,,
,,,,,html-keyboard-response,155,235127,0.0-155.0,14,1,2026-06-10 12:46:56,fac33314ff793864f6ca77dbc392f4f8,45.85.105.118,"Mozilla/5.0 (Macintosh; Intel Mac OS X 10_15_7) AppleWebKit/537.36 (KHTML, like Gecko) Chrome/146.0.0.0 YaBrowser/26.4.0.0 Safari/537.36",desktop,Chrome,146.0.0.0,OS X,10_15_7,null,"ru,en;q=0.9,fr;q=0.8",p_1781095623962_1i62,1280,832,false,21,female,4,3,null,"<div style=""text-align:center""><p style=""color:#fff;font-size:18px;margin-bottom:12px"">Запомните это лицо</p><img src=""ai_005.png"" style=""width:256px;height:256px;object-fit:contain;border:3px solid #fff;border-radius:4px;background:#808080""></div>",null,,,,,,,,,,,,,,,,,,,,
,,,,,html-keyboard-response,156,235629,0.0-156.0,14,1,2026-06-10 12:46:56,fac33314ff793864f6ca77dbc392f4f8,45.85.105.118,"Mozilla/5.0 (Macintosh; Intel Mac OS X 10_15_7) AppleWebKit/537.36 (KHTML, like Gecko) Chrome/146.0.0.0 YaBrowser/26.4.0.0 Safari/537.36",desktop,Chrome,146.0.0.0,OS X,10_15_7,null,"ru,en;q=0.9,fr;q=0.8",p_1781095623962_1i62,1280,832,false,21,female,4,3,null,"<p style=""color:#808080;font-size:1px"">.</p>",null,,,,,,,,,,,,,,,,,,,,
,,,,,html-keyboard-response,157,236372,0.0-157.0,14,1,2026-06-10 12:46:56,fac33314ff793864f6ca77dbc392f4f8,45.85.105.118,"Mozilla/5.0 (Macintosh; Intel Mac OS X 10_15_7) AppleWebKit/537.36 (KHTML, like Gecko) Chrome/146.0.0.0 YaBrowser/26.4.0.0 Safari/537.36",desktop,Chrome,146.0.0.0,OS X,10_15_7,null,"ru,en;q=0.9,fr;q=0.8",p_1781095623962_1i62,1280,832,false,21,female,4,3,741,"<div style=""text-align:center""><img src=""ff_v4_026.png"" style=""max-width:90vw;max-height:72vh;display:block;margin:0 auto""><p style=""color:#fff;font-size:18px;margin-top:16px"">Было ли запомненное лицо в наборе?</p><div class=""keys"" style=""margin-top:12px""><div class=""key"">←<span>НЕ БЫЛО</span></div><div class=""key"">→<span>БЫЛО</span></div></div></div>",arrowright,true,ff_026,face_face,ai,4,true,ai_005.png,ff_v4_026.png,4,arrowright,1,false,false,true,158,,,,,
,,,,,html-keyboard-response,158,236873,0.0-158.0,14,1,2026-06-10 12:46:56,fac33314ff793864f6ca77dbc392f4f8,45.85.105.118,"Mozilla/5.0 (Macintosh; Intel Mac OS X 10_15_7) AppleWebKit/537.36 (KHTML, like Gecko) Chrome/146.0.0.0 YaBrowser/26.4.0.0 Safari/537.36",desktop,Chrome,146.0.0.0,OS X,10_15_7,null,"ru,en;q=0.9,fr;q=0.8",p_1781095623962_1i62,1280,832,false,21,female,4,3,null,"<p style=""color:#808080;font-size:1px"">.</p>",null,,,,,,,,,,,,,,,,,,,,
,,,,,html-keyboard-response,159,237375,0.0-159.0,14,1,2026-06-10 12:46:56,fac33314ff793864f6ca77dbc392f4f8,45.85.105.118,"Mozilla/5.0 (Macintosh; Intel Mac OS X 10_15_7) AppleWebKit/537.36 (KHTML, like Gecko) Chrome/146.0.0.0 YaBrowser/26.4.0.0 Safari/537.36",desktop,Chrome,146.0.0.0,OS X,10_15_7,null,"ru,en;q=0.9,fr;q=0.8",p_1781095623962_1i62,1280,832,false,21,female,4,3,null,"<p style=""font-size:60px;color:#fff;margin:0"">+</p>",null,,,,,,,,,,,,,,,,,,,,
,,,,,html-keyboard-response,160,238877,0.0-160.0,14,1,2026-06-10 12:46:56,fac33314ff793864f6ca77dbc392f4f8,45.85.105.118,"Mozilla/5.0 (Macintosh; Intel Mac OS X 10_15_7) AppleWebKit/537.36 (KHTML, like Gecko) Chrome/146.0.0.0 YaBrowser/26.4.0.0 Safari/537.36",desktop,Chrome,146.0.0.0,OS X,10_15_7,null,"ru,en;q=0.9,fr;q=0.8",p_1781095623962_1i62,1280,832,false,21,female,4,3,null,"<div style=""text-align:center""><p style=""color:#fff;font-size:18px;margin-bottom:12px"">Запомните это лицо</p><img src=""ai_001.png"" style=""width:256px;height:256px;object-fit:contain;border:3px solid #fff;border-radius:4px;background:#808080""></div>",null,,,,,,,,,,,,,,,,,,,,
,,,,,html-keyboard-response,161,239378,0.0-161.0,14,1,2026-06-10 12:46:56,fac33314ff793864f6ca77dbc392f4f8,45.85.105.118,"Mozilla/5.0 (Macintosh; Intel Mac OS X 10_15_7) AppleWebKit/537.36 (KHTML, like Gecko) Chrome/146.0.0.0 YaBrowser/26.4.0.0 Safari/537.36",desktop,Chrome,146.0.0.0,OS X,10_15_7,null,"ru,en;q=0.9,fr;q=0.8",p_1781095623962_1i62,1280,832,false,21,female,4,3,null,"<p style=""color:#808080;font-size:1px"">.</p>",null,,,,,,,,,,,,,,,,,,,,
,,,,,html-keyboard-response,162,241343,0.0-162.0,14,1,2026-06-10 12:46:56,fac33314ff793864f6ca77dbc392f4f8,45.85.105.118,"Mozilla/5.0 (Macintosh; Intel Mac OS X 10_15_7) AppleWebKit/537.36 (KHTML, like Gecko) Chrome/146.0.0.0 YaBrowser/26.4.0.0 Safari/537.36",desktop,Chrome,146.0.0.0,OS X,10_15_7,null,"ru,en;q=0.9,fr;q=0.8",p_1781095623962_1i62,1280,832,false,21,female,4,3,1964,"<div style=""text-align:center""><img src=""ff_v4_035.png"" style=""max-width:90vw;max-height:72vh;display:block;margin:0 auto""><p style=""color:#fff;font-size:18px;margin-top:16px"">Было ли запомненное лицо в наборе?</p><div class=""keys"" style=""margin-top:12px""><div class=""key"">←<span>НЕ БЫЛО</span></div><div class=""key"">→<span>БЫЛО</span></div></div></div>",arrowleft,true,ff_035,face_face,ai,8,false,ai_001.png,ff_v4_035.png,,arrowleft,1,false,false,true,163,,,,,
,,,,,html-keyboard-response,163,241844,0.0-163.0,14,1,2026-06-10 12:46:56,fac33314ff793864f6ca77dbc392f4f8,45.85.105.118,"Mozilla/5.0 (Macintosh; Intel Mac OS X 10_15_7) AppleWebKit/537.36 (KHTML, like Gecko) Chrome/146.0.0.0 YaBrowser/26.4.0.0 Safari/537.36",desktop,Chrome,146.0.0.0,OS X,10_15_7,null,"ru,en;q=0.9,fr;q=0.8",p_1781095623962_1i62,1280,832,false,21,female,4,3,null,"<p style=""color:#808080;font-size:1px"">.</p>",null,,,,,,,,,,,,,,,,,,,,
,,,,,html-keyboard-response,164,242346,0.0-164.0,14,1,2026-06-10 12:46:56,fac33314ff793864f6ca77dbc392f4f8,45.85.105.118,"Mozilla/5.0 (Macintosh; Intel Mac OS X 10_15_7) AppleWebKit/537.36 (KHTML, like Gecko) Chrome/146.0.0.0 YaBrowser/26.4.0.0 Safari/537.36",desktop,Chrome,146.0.0.0,OS X,10_15_7,null,"ru,en;q=0.9,fr;q=0.8",p_1781095623962_1i62,1280,832,false,21,female,4,3,null,"<p style=""font-size:60px;color:#fff;margin:0"">+</p>",null,,,,,,,,,,,,,,,,,,,,
,,,,,html-keyboard-response,165,243848,0.0-165.0,14,1,2026-06-10 12:46:56,fac33314ff793864f6ca77dbc392f4f8,45.85.105.118,"Mozilla/5.0 (Macintosh; Intel Mac OS X 10_15_7) AppleWebKit/537.36 (KHTML, like Gecko) Chrome/146.0.0.0 YaBrowser/26.4.0.0 Safari/537.36",desktop,Chrome,146.0.0.0,OS X,10_15_7,null,"ru,en;q=0.9,fr;q=0.8",p_1781095623962_1i62,1280,832,false,21,female,4,3,null,"<div style=""text-align:center""><p style=""color:#fff;font-size:18px;margin-bottom:12px"">Запомните это лицо</p><img src=""real_003.png"" style=""width:256px;height:256px;object-fit:contain;border:3px solid #fff;border-radius:4px;background:#808080""></div>",null,,,,,,,,,,,,,,,,,,,,
,,,,,html-keyboard-response,166,244350,0.0-166.0,14,1,2026-06-10 12:46:56,fac33314ff793864f6ca77dbc392f4f8,45.85.105.118,"Mozilla/5.0 (Macintosh; Intel Mac OS X 10_15_7) AppleWebKit/537.36 (KHTML, like Gecko) Chrome/146.0.0.0 YaBrowser/26.4.0.0 Safari/537.36",desktop,Chrome,146.0.0.0,OS X,10_15_7,null,"ru,en;q=0.9,fr;q=0.8",p_1781095623962_1i62,1280,832,false,21,female,4,3,null,"<p style=""color:#808080;font-size:1px"">.</p>",null,,,,,,,,,,,,,,,,,,,,
,,,,,html-keyboard-response,167,245219,0.0-167.0,14,1,2026-06-10 12:46:56,fac33314ff793864f6ca77dbc392f4f8,45.85.105.118,"Mozilla/5.0 (Macintosh; Intel Mac OS X 10_15_7) AppleWebKit/537.36 (KHTML, like Gecko) Chrome/146.0.0.0 YaBrowser/26.4.0.0 Safari/537.36",desktop,Chrome,146.0.0.0,OS X,10_15_7,null,"ru,en;q=0.9,fr;q=0.8",p_1781095623962_1i62,1280,832,false,21,female,4,3,868,"<div style=""text-align:center""><img src=""ff_v4_018.png"" style=""max-width:90vw;max-height:72vh;display:block;margin:0 auto""><p style=""color:#fff;font-size:18px;margin-top:16px"">Было ли запомненное лицо в наборе?</p><div class=""keys"" style=""margin-top:12px""><div class=""key"">←<span>НЕ БЫЛО</span></div><div class=""key"">→<span>БЫЛО</span></div></div></div>",arrowright,true,ff_018,face_face,real,4,true,real_003.png,ff_v4_018.png,2,arrowright,1,false,false,true,168,,,,,
,,,,,html-keyboard-response,168,245721,0.0-168.0,14,1,2026-06-10 12:46:56,fac33314ff793864f6ca77dbc392f4f8,45.85.105.118,"Mozilla/5.0 (Macintosh; Intel Mac OS X 10_15_7) AppleWebKit/537.36 (KHTML, like Gecko) Chrome/146.0.0.0 YaBrowser/26.4.0.0 Safari/537.36",desktop,Chrome,146.0.0.0,OS X,10_15_7,null,"ru,en;q=0.9,fr;q=0.8",p_1781095623962_1i62,1280,832,false,21,female,4,3,null,"<p style=""color:#808080;font-size:1px"">.</p>",null,,,,,,,,,,,,,,,,,,,,
,,,,,html-keyboard-response,169,246223,0.0-169.0,14,1,2026-06-10 12:46:56,fac33314ff793864f6ca77dbc392f4f8,45.85.105.118,"Mozilla/5.0 (Macintosh; Intel Mac OS X 10_15_7) AppleWebKit/537.36 (KHTML, like Gecko) Chrome/146.0.0.0 YaBrowser/26.4.0.0 Safari/537.36",desktop,Chrome,146.0.0.0,OS X,10_15_7,null,"ru,en;q=0.9,fr;q=0.8",p_1781095623962_1i62,1280,832,false,21,female,4,3,null,"<p style=""font-size:60px;color:#fff;margin:0"">+</p>",null,,,,,,,,,,,,,,,,,,,,
,,,,,html-keyboard-response,170,247725,0.0-170.0,14,1,2026-06-10 12:46:56,fac33314ff793864f6ca77dbc392f4f8,45.85.105.118,"Mozilla/5.0 (Macintosh; Intel Mac OS X 10_15_7) AppleWebKit/537.36 (KHTML, like Gecko) Chrome/146.0.0.0 YaBrowser/26.4.0.0 Safari/537.36",desktop,Chrome,146.0.0.0,OS X,10_15_7,null,"ru,en;q=0.9,fr;q=0.8",p_1781095623962_1i62,1280,832,false,21,female,4,3,null,"<div style=""text-align:center""><p style=""color:#fff;font-size:18px;margin-bottom:12px"">Запомните это лицо</p><img src=""real_015.png"" style=""width:256px;height:256px;object-fit:contain;border:3px solid #fff;border-radius:4px;background:#808080""></div>",null,,,,,,,,,,,,,,,,,,,,
,,,,,html-keyboard-response,171,248226,0.0-171.0,14,1,2026-06-10 12:46:56,fac33314ff793864f6ca77dbc392f4f8,45.85.105.118,"Mozilla/5.0 (Macintosh; Intel Mac OS X 10_15_7) AppleWebKit/537.36 (KHTML, like Gecko) Chrome/146.0.0.0 YaBrowser/26.4.0.0 Safari/537.36",desktop,Chrome,146.0.0.0,OS X,10_15_7,null,"ru,en;q=0.9,fr;q=0.8",p_1781095623962_1i62,1280,832,false,21,female,4,3,null,"<p style=""color:#808080;font-size:1px"">.</p>",null,,,,,,,,,,,,,,,,,,,,
