success,timeout,failed_images,failed_audio,failed_video,trial_type,trial_index,time_elapsed,internal_node_id,run_id,condition,recorded_at,source_code_version,ip,user_agent,device,browser,browser_version,platform,platform_version,referer,accept_language,participant_id,screen_width,screen_height,is_mobile,age,gender,ai_use_frequency,ai_detection_experience,rt,stimulus,response,save_trial,trial_id,block,target_origin,set_size,target_present,cue_image,composite_image,target_position,correct_key,repetition,is_practice,no_response,correct,trial_index_global,true_origin,filename,realism_rating,classification_response,classification_correct
true,false,[],[],[],preload,0,7387,0.0-0.0,1,1,2026-06-10 16:23:18,fac33314ff793864f6ca77dbc392f4f8,50.7.47.206,"Mozilla/5.0 (Windows NT 10.0; Win64; x64) AppleWebKit/537.36 (KHTML, like Gecko) Chrome/146.0.0.0 YaBrowser/26.4.0.0 Safari/537.36",desktop,Chrome,146.0.0.0,Windows,10.0,null,"ru,en;q=0.9",p_1781108603474_wyud,1440,960,false,18,female,4,3,,,,,,,,,,,,,,,,,,,,,,,
,,,,,html-button-response,1,8736,0.0-1.0,1,1,2026-06-10 16:23:18,fac33314ff793864f6ca77dbc392f4f8,50.7.47.206,"Mozilla/5.0 (Windows NT 10.0; Win64; x64) AppleWebKit/537.36 (KHTML, like Gecko) Chrome/146.0.0.0 YaBrowser/26.4.0.0 Safari/537.36",desktop,Chrome,146.0.0.0,Windows,10.0,null,"ru,en;q=0.9",p_1781108603474_wyud,1440,960,false,18,female,4,3,1347,"<div class=""box""><h2>Информация об исследовании</h2><p>Вы приглашены принять участие в научном исследовании, посвящённом особенностям зрительного восприятия.</p><p>Участие <strong>анонимно и добровольно</strong>. Вы можете прекратить в любой момент.</p><p>Эксперимент займёт около <strong>10–15 минут</strong>.</p><p>Данные используются исключительно в учебно-научных целях (курсовая работа, НИУ ВШЭ).</p></div>",0,,,,,,,,,,,,,,,,,,,,
,,,,,html-button-response,2,27724,0.0-2.0,1,1,2026-06-10 16:23:18,fac33314ff793864f6ca77dbc392f4f8,50.7.47.206,"Mozilla/5.0 (Windows NT 10.0; Win64; x64) AppleWebKit/537.36 (KHTML, like Gecko) Chrome/146.0.0.0 YaBrowser/26.4.0.0 Safari/537.36",desktop,Chrome,146.0.0.0,Windows,10.0,null,"ru,en;q=0.9",p_1781108603474_wyud,1440,960,false,18,female,4,3,18986,"<div class=""box""><h2>Перед началом</h2><ul><li>Вы за <strong>компьютером или ноутбуком</strong></li><li>Клавиши <strong>←</strong> и <strong>→</strong> доступны</li><li>Браузер развёрнут <strong>на весь экран</strong> (F11)</li><li>Экран на расстоянии <strong>вытянутой руки</strong></li><li>Есть <strong>10–15 минут</strong> в тишине без отвлечений</li></ul></div>",0,,,,,,,,,,,,,,,,,,,,
,,,,,survey-html-form,3,51442,0.0-3.0,1,1,2026-06-10 16:23:18,fac33314ff793864f6ca77dbc392f4f8,50.7.47.206,"Mozilla/5.0 (Windows NT 10.0; Win64; x64) AppleWebKit/537.36 (KHTML, like Gecko) Chrome/146.0.0.0 YaBrowser/26.4.0.0 Safari/537.36",desktop,Chrome,146.0.0.0,Windows,10.0,null,"ru,en;q=0.9",p_1781108603474_wyud,1440,960,false,18,female,4,3,23715,,"{""age"":""18"",""gender"":""female"",""device"":""desktop"",""ai_use_frequency"":""4"",""ai_detection_experience"":""3""}",,,,,,,,,,,,,,,,,,,,
,,,,,html-button-response,4,82987,0.0-4.0,1,1,2026-06-10 16:23:18,fac33314ff793864f6ca77dbc392f4f8,50.7.47.206,"Mozilla/5.0 (Windows NT 10.0; Win64; x64) AppleWebKit/537.36 (KHTML, like Gecko) Chrome/146.0.0.0 YaBrowser/26.4.0.0 Safari/537.36",desktop,Chrome,146.0.0.0,Windows,10.0,null,"ru,en;q=0.9",p_1781108603474_wyud,1440,960,false,18,female,4,3,31543,"<div class=""box""><h2>Задача</h2><p>В каждой пробе сначала появится <strong>одно лицо</strong>. Его нужно запомнить.</p><p>Затем появится набор из нескольких лиц. Ваша задача — определить, было ли запомненное лицо в этом наборе.</p><div class=""keys""><div class=""key"">←<span>лица НЕ БЫЛО</span></div><div class=""key"">→<span>лицо БЫЛО</span></div></div><p>Держите пальцы на клавишах <strong>←</strong> и <strong>→</strong>.</p><p><strong>Важно:</strong> в начале каждой пробы — фиксационный крест (+). Смотрите на него и <strong>не двигайте глазами</strong> до появления набора. Отвечайте как можно быстрее.</p><p>Если ответ не дан в течение 5 секунд — проба завершится автоматически.</p><p>Сначала — несколько тренировочных проб с обратной связью.</p></div>",0,,,,,,,,,,,,,,,,,,,,
,,,,,html-keyboard-response,5,83496,0.0-5.0,1,1,2026-06-10 16:23:18,fac33314ff793864f6ca77dbc392f4f8,50.7.47.206,"Mozilla/5.0 (Windows NT 10.0; Win64; x64) AppleWebKit/537.36 (KHTML, like Gecko) Chrome/146.0.0.0 YaBrowser/26.4.0.0 Safari/537.36",desktop,Chrome,146.0.0.0,Windows,10.0,null,"ru,en;q=0.9",p_1781108603474_wyud,1440,960,false,18,female,4,3,null,"<p style=""font-size:60px;color:#fff;margin:0"">+</p>",null,,,,,,,,,,,,,,,,,,,,
,,,,,html-keyboard-response,6,85013,0.0-6.0,1,1,2026-06-10 16:23:18,fac33314ff793864f6ca77dbc392f4f8,50.7.47.206,"Mozilla/5.0 (Windows NT 10.0; Win64; x64) AppleWebKit/537.36 (KHTML, like Gecko) Chrome/146.0.0.0 YaBrowser/26.4.0.0 Safari/537.36",desktop,Chrome,146.0.0.0,Windows,10.0,null,"ru,en;q=0.9",p_1781108603474_wyud,1440,960,false,18,female,4,3,null,"<div style=""text-align:center""><p style=""color:#fff;font-size:18px;margin-bottom:12px"">Запомните это лицо</p><img src=""ai_001.png"" style=""width:256px;height:256px;object-fit:contain;border:3px solid #fff;border-radius:4px;background:#808080""></div>",null,,,,,,,,,,,,,,,,,,,,
,,,,,html-keyboard-response,7,85522,0.0-7.0,1,1,2026-06-10 16:23:18,fac33314ff793864f6ca77dbc392f4f8,50.7.47.206,"Mozilla/5.0 (Windows NT 10.0; Win64; x64) AppleWebKit/537.36 (KHTML, like Gecko) Chrome/146.0.0.0 YaBrowser/26.4.0.0 Safari/537.36",desktop,Chrome,146.0.0.0,Windows,10.0,null,"ru,en;q=0.9",p_1781108603474_wyud,1440,960,false,18,female,4,3,null,"<p style=""color:#808080;font-size:1px"">.</p>",null,,,,,,,,,,,,,,,,,,,,
,,,,,html-keyboard-response,8,88119,0.0-8.0,1,1,2026-06-10 16:23:18,fac33314ff793864f6ca77dbc392f4f8,50.7.47.206,"Mozilla/5.0 (Windows NT 10.0; Win64; x64) AppleWebKit/537.36 (KHTML, like Gecko) Chrome/146.0.0.0 YaBrowser/26.4.0.0 Safari/537.36",desktop,Chrome,146.0.0.0,Windows,10.0,null,"ru,en;q=0.9",p_1781108603474_wyud,1440,960,false,18,female,4,3,2595,"<div style=""text-align:center""><img src=""ff_v4_035.png"" style=""max-width:90vw;max-height:72vh;display:block;margin:0 auto""><p style=""color:#fff;font-size:18px;margin-top:16px"">Было ли запомненное лицо в наборе?</p><div class=""keys"" style=""margin-top:12px""><div class=""key"">←<span>НЕ БЫЛО</span></div><div class=""key"">→<span>БЫЛО</span></div></div></div>",arrowleft,true,ff_035,face_face,ai,8,false,ai_001.png,ff_v4_035.png,,arrowleft,1,true,false,true,9,,,,,
,,,,,html-keyboard-response,9,88921,0.0-9.0,1,1,2026-06-10 16:23:18,fac33314ff793864f6ca77dbc392f4f8,50.7.47.206,"Mozilla/5.0 (Windows NT 10.0; Win64; x64) AppleWebKit/537.36 (KHTML, like Gecko) Chrome/146.0.0.0 YaBrowser/26.4.0.0 Safari/537.36",desktop,Chrome,146.0.0.0,Windows,10.0,null,"ru,en;q=0.9",p_1781108603474_wyud,1440,960,false,18,female,4,3,null,"<p class=""fb-yes"">Верно</p>",null,,,,,,,,,,,,,,,,,,,,
,,,,,html-keyboard-response,10,89433,0.0-10.0,1,1,2026-06-10 16:23:18,fac33314ff793864f6ca77dbc392f4f8,50.7.47.206,"Mozilla/5.0 (Windows NT 10.0; Win64; x64) AppleWebKit/537.36 (KHTML, like Gecko) Chrome/146.0.0.0 YaBrowser/26.4.0.0 Safari/537.36",desktop,Chrome,146.0.0.0,Windows,10.0,null,"ru,en;q=0.9",p_1781108603474_wyud,1440,960,false,18,female,4,3,null,"<p style=""color:#808080;font-size:1px"">.</p>",null,,,,,,,,,,,,,,,,,,,,
,,,,,html-keyboard-response,11,89940,0.0-11.0,1,1,2026-06-10 16:23:18,fac33314ff793864f6ca77dbc392f4f8,50.7.47.206,"Mozilla/5.0 (Windows NT 10.0; Win64; x64) AppleWebKit/537.36 (KHTML, like Gecko) Chrome/146.0.0.0 YaBrowser/26.4.0.0 Safari/537.36",desktop,Chrome,146.0.0.0,Windows,10.0,null,"ru,en;q=0.9",p_1781108603474_wyud,1440,960,false,18,female,4,3,null,"<p style=""font-size:60px;color:#fff;margin:0"">+</p>",null,,,,,,,,,,,,,,,,,,,,
,,,,,html-keyboard-response,12,91447,0.0-12.0,1,1,2026-06-10 16:23:18,fac33314ff793864f6ca77dbc392f4f8,50.7.47.206,"Mozilla/5.0 (Windows NT 10.0; Win64; x64) AppleWebKit/537.36 (KHTML, like Gecko) Chrome/146.0.0.0 YaBrowser/26.4.0.0 Safari/537.36",desktop,Chrome,146.0.0.0,Windows,10.0,null,"ru,en;q=0.9",p_1781108603474_wyud,1440,960,false,18,female,4,3,null,"<div style=""text-align:center""><p style=""color:#fff;font-size:18px;margin-bottom:12px"">Запомните это лицо</p><img src=""ai_004.png"" style=""width:256px;height:256px;object-fit:contain;border:3px solid #fff;border-radius:4px;background:#808080""></div>",null,,,,,,,,,,,,,,,,,,,,
,,,,,html-keyboard-response,13,91950,0.0-13.0,1,1,2026-06-10 16:23:18,fac33314ff793864f6ca77dbc392f4f8,50.7.47.206,"Mozilla/5.0 (Windows NT 10.0; Win64; x64) AppleWebKit/537.36 (KHTML, like Gecko) Chrome/146.0.0.0 YaBrowser/26.4.0.0 Safari/537.36",desktop,Chrome,146.0.0.0,Windows,10.0,null,"ru,en;q=0.9",p_1781108603474_wyud,1440,960,false,18,female,4,3,null,"<p style=""color:#808080;font-size:1px"">.</p>",null,,,,,,,,,,,,,,,,,,,,
,,,,,html-keyboard-response,14,95525,0.0-14.0,1,1,2026-06-10 16:23:18,fac33314ff793864f6ca77dbc392f4f8,50.7.47.206,"Mozilla/5.0 (Windows NT 10.0; Win64; x64) AppleWebKit/537.36 (KHTML, like Gecko) Chrome/146.0.0.0 YaBrowser/26.4.0.0 Safari/537.36",desktop,Chrome,146.0.0.0,Windows,10.0,null,"ru,en;q=0.9",p_1781108603474_wyud,1440,960,false,18,female,4,3,3574,"<div style=""text-align:center""><img src=""ff_v4_025.png"" style=""max-width:90vw;max-height:72vh;display:block;margin:0 auto""><p style=""color:#fff;font-size:18px;margin-top:16px"">Было ли запомненное лицо в наборе?</p><div class=""keys"" style=""margin-top:12px""><div class=""key"">←<span>НЕ БЫЛО</span></div><div class=""key"">→<span>БЫЛО</span></div></div></div>",arrowleft,true,ff_025,face_face,ai,8,false,ai_004.png,ff_v4_025.png,,arrowleft,1,true,false,true,15,,,,,
,,,,,html-keyboard-response,15,96326,0.0-15.0,1,1,2026-06-10 16:23:18,fac33314ff793864f6ca77dbc392f4f8,50.7.47.206,"Mozilla/5.0 (Windows NT 10.0; Win64; x64) AppleWebKit/537.36 (KHTML, like Gecko) Chrome/146.0.0.0 YaBrowser/26.4.0.0 Safari/537.36",desktop,Chrome,146.0.0.0,Windows,10.0,null,"ru,en;q=0.9",p_1781108603474_wyud,1440,960,false,18,female,4,3,null,"<p class=""fb-yes"">Верно</p>",null,,,,,,,,,,,,,,,,,,,,
,,,,,html-keyboard-response,16,96835,0.0-16.0,1,1,2026-06-10 16:23:18,fac33314ff793864f6ca77dbc392f4f8,50.7.47.206,"Mozilla/5.0 (Windows NT 10.0; Win64; x64) AppleWebKit/537.36 (KHTML, like Gecko) Chrome/146.0.0.0 YaBrowser/26.4.0.0 Safari/537.36",desktop,Chrome,146.0.0.0,Windows,10.0,null,"ru,en;q=0.9",p_1781108603474_wyud,1440,960,false,18,female,4,3,null,"<p style=""color:#808080;font-size:1px"">.</p>",null,,,,,,,,,,,,,,,,,,,,
,,,,,html-keyboard-response,17,97343,0.0-17.0,1,1,2026-06-10 16:23:18,fac33314ff793864f6ca77dbc392f4f8,50.7.47.206,"Mozilla/5.0 (Windows NT 10.0; Win64; x64) AppleWebKit/537.36 (KHTML, like Gecko) Chrome/146.0.0.0 YaBrowser/26.4.0.0 Safari/537.36",desktop,Chrome,146.0.0.0,Windows,10.0,null,"ru,en;q=0.9",p_1781108603474_wyud,1440,960,false,18,female,4,3,null,"<p style=""font-size:60px;color:#fff;margin:0"">+</p>",null,,,,,,,,,,,,,,,,,,,,
,,,,,html-keyboard-response,18,98855,0.0-18.0,1,1,2026-06-10 16:23:18,fac33314ff793864f6ca77dbc392f4f8,50.7.47.206,"Mozilla/5.0 (Windows NT 10.0; Win64; x64) AppleWebKit/537.36 (KHTML, like Gecko) Chrome/146.0.0.0 YaBrowser/26.4.0.0 Safari/537.36",desktop,Chrome,146.0.0.0,Windows,10.0,null,"ru,en;q=0.9",p_1781108603474_wyud,1440,960,false,18,female,4,3,null,"<div style=""text-align:center""><p style=""color:#fff;font-size:18px;margin-bottom:12px"">Запомните это лицо</p><img src=""ai_001.png"" style=""width:256px;height:256px;object-fit:contain;border:3px solid #fff;border-radius:4px;background:#808080""></div>",null,,,,,,,,,,,,,,,,,,,,
,,,,,html-keyboard-response,19,99363,0.0-19.0,1,1,2026-06-10 16:23:18,fac33314ff793864f6ca77dbc392f4f8,50.7.47.206,"Mozilla/5.0 (Windows NT 10.0; Win64; x64) AppleWebKit/537.36 (KHTML, like Gecko) Chrome/146.0.0.0 YaBrowser/26.4.0.0 Safari/537.36",desktop,Chrome,146.0.0.0,Windows,10.0,null,"ru,en;q=0.9",p_1781108603474_wyud,1440,960,false,18,female,4,3,null,"<p style=""color:#808080;font-size:1px"">.</p>",null,,,,,,,,,,,,,,,,,,,,
,,,,,html-keyboard-response,20,100302,0.0-20.0,1,1,2026-06-10 16:23:18,fac33314ff793864f6ca77dbc392f4f8,50.7.47.206,"Mozilla/5.0 (Windows NT 10.0; Win64; x64) AppleWebKit/537.36 (KHTML, like Gecko) Chrome/146.0.0.0 YaBrowser/26.4.0.0 Safari/537.36",desktop,Chrome,146.0.0.0,Windows,10.0,null,"ru,en;q=0.9",p_1781108603474_wyud,1440,960,false,18,female,4,3,938,"<div style=""text-align:center""><img src=""ff_v4_040.png"" style=""max-width:90vw;max-height:72vh;display:block;margin:0 auto""><p style=""color:#fff;font-size:18px;margin-top:16px"">Было ли запомненное лицо в наборе?</p><div class=""keys"" style=""margin-top:12px""><div class=""key"">←<span>НЕ БЫЛО</span></div><div class=""key"">→<span>БЫЛО</span></div></div></div>",arrowright,true,ff_040,face_face,ai,8,true,ai_001.png,ff_v4_040.png,5,arrowright,1,true,false,true,21,,,,,
,,,,,html-keyboard-response,21,101118,0.0-21.0,1,1,2026-06-10 16:23:18,fac33314ff793864f6ca77dbc392f4f8,50.7.47.206,"Mozilla/5.0 (Windows NT 10.0; Win64; x64) AppleWebKit/537.36 (KHTML, like Gecko) Chrome/146.0.0.0 YaBrowser/26.4.0.0 Safari/537.36",desktop,Chrome,146.0.0.0,Windows,10.0,null,"ru,en;q=0.9",p_1781108603474_wyud,1440,960,false,18,female,4,3,null,"<p class=""fb-yes"">Верно</p>",null,,,,,,,,,,,,,,,,,,,,
,,,,,html-keyboard-response,22,101626,0.0-22.0,1,1,2026-06-10 16:23:18,fac33314ff793864f6ca77dbc392f4f8,50.7.47.206,"Mozilla/5.0 (Windows NT 10.0; Win64; x64) AppleWebKit/537.36 (KHTML, like Gecko) Chrome/146.0.0.0 YaBrowser/26.4.0.0 Safari/537.36",desktop,Chrome,146.0.0.0,Windows,10.0,null,"ru,en;q=0.9",p_1781108603474_wyud,1440,960,false,18,female,4,3,null,"<p style=""color:#808080;font-size:1px"">.</p>",null,,,,,,,,,,,,,,,,,,,,
,,,,,html-keyboard-response,23,102131,0.0-23.0,1,1,2026-06-10 16:23:18,fac33314ff793864f6ca77dbc392f4f8,50.7.47.206,"Mozilla/5.0 (Windows NT 10.0; Win64; x64) AppleWebKit/537.36 (KHTML, like Gecko) Chrome/146.0.0.0 YaBrowser/26.4.0.0 Safari/537.36",desktop,Chrome,146.0.0.0,Windows,10.0,null,"ru,en;q=0.9",p_1781108603474_wyud,1440,960,false,18,female,4,3,null,"<p style=""font-size:60px;color:#fff;margin:0"">+</p>",null,,,,,,,,,,,,,,,,,,,,
,,,,,html-keyboard-response,24,103634,0.0-24.0,1,1,2026-06-10 16:23:18,fac33314ff793864f6ca77dbc392f4f8,50.7.47.206,"Mozilla/5.0 (Windows NT 10.0; Win64; x64) AppleWebKit/537.36 (KHTML, like Gecko) Chrome/146.0.0.0 YaBrowser/26.4.0.0 Safari/537.36",desktop,Chrome,146.0.0.0,Windows,10.0,null,"ru,en;q=0.9",p_1781108603474_wyud,1440,960,false,18,female,4,3,null,"<div style=""text-align:center""><p style=""color:#fff;font-size:18px;margin-bottom:12px"">Запомните это лицо</p><img src=""ai_006.png"" style=""width:256px;height:256px;object-fit:contain;border:3px solid #fff;border-radius:4px;background:#808080""></div>",null,,,,,,,,,,,,,,,,,,,,
,,,,,html-keyboard-response,25,104139,0.0-25.0,1,1,2026-06-10 16:23:18,fac33314ff793864f6ca77dbc392f4f8,50.7.47.206,"Mozilla/5.0 (Windows NT 10.0; Win64; x64) AppleWebKit/537.36 (KHTML, like Gecko) Chrome/146.0.0.0 YaBrowser/26.4.0.0 Safari/537.36",desktop,Chrome,146.0.0.0,Windows,10.0,null,"ru,en;q=0.9",p_1781108603474_wyud,1440,960,false,18,female,4,3,null,"<p style=""color:#808080;font-size:1px"">.</p>",null,,,,,,,,,,,,,,,,,,,,
,,,,,html-keyboard-response,26,105428,0.0-26.0,1,1,2026-06-10 16:23:18,fac33314ff793864f6ca77dbc392f4f8,50.7.47.206,"Mozilla/5.0 (Windows NT 10.0; Win64; x64) AppleWebKit/537.36 (KHTML, like Gecko) Chrome/146.0.0.0 YaBrowser/26.4.0.0 Safari/537.36",desktop,Chrome,146.0.0.0,Windows,10.0,null,"ru,en;q=0.9",p_1781108603474_wyud,1440,960,false,18,female,4,3,1288,"<div style=""text-align:center""><img src=""ff_v4_021.png"" style=""max-width:90vw;max-height:72vh;display:block;margin:0 auto""><p style=""color:#fff;font-size:18px;margin-top:16px"">Было ли запомненное лицо в наборе?</p><div class=""keys"" style=""margin-top:12px""><div class=""key"">←<span>НЕ БЫЛО</span></div><div class=""key"">→<span>БЫЛО</span></div></div></div>",arrowleft,true,ff_021,face_face,ai,4,false,ai_006.png,ff_v4_021.png,,arrowleft,1,true,false,true,27,,,,,
,,,,,html-keyboard-response,27,106234,0.0-27.0,1,1,2026-06-10 16:23:18,fac33314ff793864f6ca77dbc392f4f8,50.7.47.206,"Mozilla/5.0 (Windows NT 10.0; Win64; x64) AppleWebKit/537.36 (KHTML, like Gecko) Chrome/146.0.0.0 YaBrowser/26.4.0.0 Safari/537.36",desktop,Chrome,146.0.0.0,Windows,10.0,null,"ru,en;q=0.9",p_1781108603474_wyud,1440,960,false,18,female,4,3,null,"<p class=""fb-yes"">Верно</p>",null,,,,,,,,,,,,,,,,,,,,
,,,,,html-keyboard-response,28,106743,0.0-28.0,1,1,2026-06-10 16:23:18,fac33314ff793864f6ca77dbc392f4f8,50.7.47.206,"Mozilla/5.0 (Windows NT 10.0; Win64; x64) AppleWebKit/537.36 (KHTML, like Gecko) Chrome/146.0.0.0 YaBrowser/26.4.0.0 Safari/537.36",desktop,Chrome,146.0.0.0,Windows,10.0,null,"ru,en;q=0.9",p_1781108603474_wyud,1440,960,false,18,female,4,3,null,"<p style=""color:#808080;font-size:1px"">.</p>",null,,,,,,,,,,,,,,,,,,,,
,,,,,html-keyboard-response,29,107249,0.0-29.0,1,1,2026-06-10 16:23:18,fac33314ff793864f6ca77dbc392f4f8,50.7.47.206,"Mozilla/5.0 (Windows NT 10.0; Win64; x64) AppleWebKit/537.36 (KHTML, like Gecko) Chrome/146.0.0.0 YaBrowser/26.4.0.0 Safari/537.36",desktop,Chrome,146.0.0.0,Windows,10.0,null,"ru,en;q=0.9",p_1781108603474_wyud,1440,960,false,18,female,4,3,null,"<p style=""font-size:60px;color:#fff;margin:0"">+</p>",null,,,,,,,,,,,,,,,,,,,,
,,,,,html-keyboard-response,30,108752,0.0-30.0,1,1,2026-06-10 16:23:18,fac33314ff793864f6ca77dbc392f4f8,50.7.47.206,"Mozilla/5.0 (Windows NT 10.0; Win64; x64) AppleWebKit/537.36 (KHTML, like Gecko) Chrome/146.0.0.0 YaBrowser/26.4.0.0 Safari/537.36",desktop,Chrome,146.0.0.0,Windows,10.0,null,"ru,en;q=0.9",p_1781108603474_wyud,1440,960,false,18,female,4,3,null,"<div style=""text-align:center""><p style=""color:#fff;font-size:18px;margin-bottom:12px"">Запомните это лицо</p><img src=""real_010.png"" style=""width:256px;height:256px;object-fit:contain;border:3px solid #fff;border-radius:4px;background:#808080""></div>",null,,,,,,,,,,,,,,,,,,,,
,,,,,html-keyboard-response,31,109258,0.0-31.0,1,1,2026-06-10 16:23:18,fac33314ff793864f6ca77dbc392f4f8,50.7.47.206,"Mozilla/5.0 (Windows NT 10.0; Win64; x64) AppleWebKit/537.36 (KHTML, like Gecko) Chrome/146.0.0.0 YaBrowser/26.4.0.0 Safari/537.36",desktop,Chrome,146.0.0.0,Windows,10.0,null,"ru,en;q=0.9",p_1781108603474_wyud,1440,960,false,18,female,4,3,null,"<p style=""color:#808080;font-size:1px"">.</p>",null,,,,,,,,,,,,,,,,,,,,
,,,,,html-keyboard-response,32,110196,0.0-32.0,1,1,2026-06-10 16:23:18,fac33314ff793864f6ca77dbc392f4f8,50.7.47.206,"Mozilla/5.0 (Windows NT 10.0; Win64; x64) AppleWebKit/537.36 (KHTML, like Gecko) Chrome/146.0.0.0 YaBrowser/26.4.0.0 Safari/537.36",desktop,Chrome,146.0.0.0,Windows,10.0,null,"ru,en;q=0.9",p_1781108603474_wyud,1440,960,false,18,female,4,3,938,"<div style=""text-align:center""><img src=""ff_v4_003.png"" style=""max-width:90vw;max-height:72vh;display:block;margin:0 auto""><p style=""color:#fff;font-size:18px;margin-top:16px"">Было ли запомненное лицо в наборе?</p><div class=""keys"" style=""margin-top:12px""><div class=""key"">←<span>НЕ БЫЛО</span></div><div class=""key"">→<span>БЫЛО</span></div></div></div>",arrowright,true,ff_003,face_face,real,4,true,real_010.png,ff_v4_003.png,3,arrowright,1,true,false,true,33,,,,,
,,,,,html-keyboard-response,33,111010,0.0-33.0,1,1,2026-06-10 16:23:18,fac33314ff793864f6ca77dbc392f4f8,50.7.47.206,"Mozilla/5.0 (Windows NT 10.0; Win64; x64) AppleWebKit/537.36 (KHTML, like Gecko) Chrome/146.0.0.0 YaBrowser/26.4.0.0 Safari/537.36",desktop,Chrome,146.0.0.0,Windows,10.0,null,"ru,en;q=0.9",p_1781108603474_wyud,1440,960,false,18,female,4,3,null,"<p class=""fb-yes"">Верно</p>",null,,,,,,,,,,,,,,,,,,,,
,,,,,html-keyboard-response,34,111517,0.0-34.0,1,1,2026-06-10 16:23:18,fac33314ff793864f6ca77dbc392f4f8,50.7.47.206,"Mozilla/5.0 (Windows NT 10.0; Win64; x64) AppleWebKit/537.36 (KHTML, like Gecko) Chrome/146.0.0.0 YaBrowser/26.4.0.0 Safari/537.36",desktop,Chrome,146.0.0.0,Windows,10.0,null,"ru,en;q=0.9",p_1781108603474_wyud,1440,960,false,18,female,4,3,null,"<p style=""color:#808080;font-size:1px"">.</p>",null,,,,,,,,,,,,,,,,,,,,
,,,,,html-keyboard-response,35,112020,0.0-35.0,1,1,2026-06-10 16:23:18,fac33314ff793864f6ca77dbc392f4f8,50.7.47.206,"Mozilla/5.0 (Windows NT 10.0; Win64; x64) AppleWebKit/537.36 (KHTML, like Gecko) Chrome/146.0.0.0 YaBrowser/26.4.0.0 Safari/537.36",desktop,Chrome,146.0.0.0,Windows,10.0,null,"ru,en;q=0.9",p_1781108603474_wyud,1440,960,false,18,female,4,3,null,"<p style=""font-size:60px;color:#fff;margin:0"">+</p>",null,,,,,,,,,,,,,,,,,,,,
,,,,,html-keyboard-response,36,113523,0.0-36.0,1,1,2026-06-10 16:23:18,fac33314ff793864f6ca77dbc392f4f8,50.7.47.206,"Mozilla/5.0 (Windows NT 10.0; Win64; x64) AppleWebKit/537.36 (KHTML, like Gecko) Chrome/146.0.0.0 YaBrowser/26.4.0.0 Safari/537.36",desktop,Chrome,146.0.0.0,Windows,10.0,null,"ru,en;q=0.9",p_1781108603474_wyud,1440,960,false,18,female,4,3,null,"<div style=""text-align:center""><p style=""color:#fff;font-size:18px;margin-bottom:12px"">Запомните это лицо</p><img src=""real_033.png"" style=""width:256px;height:256px;object-fit:contain;border:3px solid #fff;border-radius:4px;background:#808080""></div>",null,,,,,,,,,,,,,,,,,,,,
,,,,,html-keyboard-response,37,114034,0.0-37.0,1,1,2026-06-10 16:23:18,fac33314ff793864f6ca77dbc392f4f8,50.7.47.206,"Mozilla/5.0 (Windows NT 10.0; Win64; x64) AppleWebKit/537.36 (KHTML, like Gecko) Chrome/146.0.0.0 YaBrowser/26.4.0.0 Safari/537.36",desktop,Chrome,146.0.0.0,Windows,10.0,null,"ru,en;q=0.9",p_1781108603474_wyud,1440,960,false,18,female,4,3,null,"<p style=""color:#808080;font-size:1px"">.</p>",null,,,,,,,,,,,,,,,,,,,,
,,,,,html-keyboard-response,38,114886,0.0-38.0,1,1,2026-06-10 16:23:18,fac33314ff793864f6ca77dbc392f4f8,50.7.47.206,"Mozilla/5.0 (Windows NT 10.0; Win64; x64) AppleWebKit/537.36 (KHTML, like Gecko) Chrome/146.0.0.0 YaBrowser/26.4.0.0 Safari/537.36",desktop,Chrome,146.0.0.0,Windows,10.0,null,"ru,en;q=0.9",p_1781108603474_wyud,1440,960,false,18,female,4,3,850,"<div style=""text-align:center""><img src=""ff_v4_039.png"" style=""max-width:90vw;max-height:72vh;display:block;margin:0 auto""><p style=""color:#fff;font-size:18px;margin-top:16px"">Было ли запомненное лицо в наборе?</p><div class=""keys"" style=""margin-top:12px""><div class=""key"">←<span>НЕ БЫЛО</span></div><div class=""key"">→<span>БЫЛО</span></div></div></div>",arrowleft,true,ff_039,face_face,real,8,true,real_033.png,ff_v4_039.png,5,arrowright,1,true,false,false,39,,,,,
,,,,,html-keyboard-response,39,115693,0.0-39.0,1,1,2026-06-10 16:23:18,fac33314ff793864f6ca77dbc392f4f8,50.7.47.206,"Mozilla/5.0 (Windows NT 10.0; Win64; x64) AppleWebKit/537.36 (KHTML, like Gecko) Chrome/146.0.0.0 YaBrowser/26.4.0.0 Safari/537.36",desktop,Chrome,146.0.0.0,Windows,10.0,null,"ru,en;q=0.9",p_1781108603474_wyud,1440,960,false,18,female,4,3,null,"<p class=""fb-no"">Неверно</p>",null,,,,,,,,,,,,,,,,,,,,
,,,,,html-keyboard-response,40,116198,0.0-40.0,1,1,2026-06-10 16:23:18,fac33314ff793864f6ca77dbc392f4f8,50.7.47.206,"Mozilla/5.0 (Windows NT 10.0; Win64; x64) AppleWebKit/537.36 (KHTML, like Gecko) Chrome/146.0.0.0 YaBrowser/26.4.0.0 Safari/537.36",desktop,Chrome,146.0.0.0,Windows,10.0,null,"ru,en;q=0.9",p_1781108603474_wyud,1440,960,false,18,female,4,3,null,"<p style=""color:#808080;font-size:1px"">.</p>",null,,,,,,,,,,,,,,,,,,,,
,,,,,html-keyboard-response,41,116703,0.0-41.0,1,1,2026-06-10 16:23:18,fac33314ff793864f6ca77dbc392f4f8,50.7.47.206,"Mozilla/5.0 (Windows NT 10.0; Win64; x64) AppleWebKit/537.36 (KHTML, like Gecko) Chrome/146.0.0.0 YaBrowser/26.4.0.0 Safari/537.36",desktop,Chrome,146.0.0.0,Windows,10.0,null,"ru,en;q=0.9",p_1781108603474_wyud,1440,960,false,18,female,4,3,null,"<p style=""font-size:60px;color:#fff;margin:0"">+</p>",null,,,,,,,,,,,,,,,,,,,,
,,,,,html-keyboard-response,42,118208,0.0-42.0,1,1,2026-06-10 16:23:18,fac33314ff793864f6ca77dbc392f4f8,50.7.47.206,"Mozilla/5.0 (Windows NT 10.0; Win64; x64) AppleWebKit/537.36 (KHTML, like Gecko) Chrome/146.0.0.0 YaBrowser/26.4.0.0 Safari/537.36",desktop,Chrome,146.0.0.0,Windows,10.0,null,"ru,en;q=0.9",p_1781108603474_wyud,1440,960,false,18,female,4,3,null,"<div style=""text-align:center""><p style=""color:#fff;font-size:18px;margin-bottom:12px"">Запомните это лицо</p><img src=""ai_006.png"" style=""width:256px;height:256px;object-fit:contain;border:3px solid #fff;border-radius:4px;background:#808080""></div>",null,,,,,,,,,,,,,,,,,,,,
,,,,,html-keyboard-response,43,118716,0.0-43.0,1,1,2026-06-10 16:23:18,fac33314ff793864f6ca77dbc392f4f8,50.7.47.206,"Mozilla/5.0 (Windows NT 10.0; Win64; x64) AppleWebKit/537.36 (KHTML, like Gecko) Chrome/146.0.0.0 YaBrowser/26.4.0.0 Safari/537.36",desktop,Chrome,146.0.0.0,Windows,10.0,null,"ru,en;q=0.9",p_1781108603474_wyud,1440,960,false,18,female,4,3,null,"<p style=""color:#808080;font-size:1px"">.</p>",null,,,,,,,,,,,,,,,,,,,,
,,,,,html-keyboard-response,44,120258,0.0-44.0,1,1,2026-06-10 16:23:18,fac33314ff793864f6ca77dbc392f4f8,50.7.47.206,"Mozilla/5.0 (Windows NT 10.0; Win64; x64) AppleWebKit/537.36 (KHTML, like Gecko) Chrome/146.0.0.0 YaBrowser/26.4.0.0 Safari/537.36",desktop,Chrome,146.0.0.0,Windows,10.0,null,"ru,en;q=0.9",p_1781108603474_wyud,1440,960,false,18,female,4,3,1541,"<div style=""text-align:center""><img src=""ff_v4_038.png"" style=""max-width:90vw;max-height:72vh;display:block;margin:0 auto""><p style=""color:#fff;font-size:18px;margin-top:16px"">Было ли запомненное лицо в наборе?</p><div class=""keys"" style=""margin-top:12px""><div class=""key"">←<span>НЕ БЫЛО</span></div><div class=""key"">→<span>БЫЛО</span></div></div></div>",arrowleft,true,ff_038,face_face,ai,8,false,ai_006.png,ff_v4_038.png,,arrowleft,1,true,false,true,45,,,,,
,,,,,html-keyboard-response,45,121068,0.0-45.0,1,1,2026-06-10 16:23:18,fac33314ff793864f6ca77dbc392f4f8,50.7.47.206,"Mozilla/5.0 (Windows NT 10.0; Win64; x64) AppleWebKit/537.36 (KHTML, like Gecko) Chrome/146.0.0.0 YaBrowser/26.4.0.0 Safari/537.36",desktop,Chrome,146.0.0.0,Windows,10.0,null,"ru,en;q=0.9",p_1781108603474_wyud,1440,960,false,18,female,4,3,null,"<p class=""fb-yes"">Верно</p>",null,,,,,,,,,,,,,,,,,,,,
,,,,,html-keyboard-response,46,121572,0.0-46.0,1,1,2026-06-10 16:23:18,fac33314ff793864f6ca77dbc392f4f8,50.7.47.206,"Mozilla/5.0 (Windows NT 10.0; Win64; x64) AppleWebKit/537.36 (KHTML, like Gecko) Chrome/146.0.0.0 YaBrowser/26.4.0.0 Safari/537.36",desktop,Chrome,146.0.0.0,Windows,10.0,null,"ru,en;q=0.9",p_1781108603474_wyud,1440,960,false,18,female,4,3,null,"<p style=""color:#808080;font-size:1px"">.</p>",null,,,,,,,,,,,,,,,,,,,,
,,,,,html-keyboard-response,47,122080,0.0-47.0,1,1,2026-06-10 16:23:18,fac33314ff793864f6ca77dbc392f4f8,50.7.47.206,"Mozilla/5.0 (Windows NT 10.0; Win64; x64) AppleWebKit/537.36 (KHTML, like Gecko) Chrome/146.0.0.0 YaBrowser/26.4.0.0 Safari/537.36",desktop,Chrome,146.0.0.0,Windows,10.0,null,"ru,en;q=0.9",p_1781108603474_wyud,1440,960,false,18,female,4,3,null,"<p style=""font-size:60px;color:#fff;margin:0"">+</p>",null,,,,,,,,,,,,,,,,,,,,
,,,,,html-keyboard-response,48,123589,0.0-48.0,1,1,2026-06-10 16:23:18,fac33314ff793864f6ca77dbc392f4f8,50.7.47.206,"Mozilla/5.0 (Windows NT 10.0; Win64; x64) AppleWebKit/537.36 (KHTML, like Gecko) Chrome/146.0.0.0 YaBrowser/26.4.0.0 Safari/537.36",desktop,Chrome,146.0.0.0,Windows,10.0,null,"ru,en;q=0.9",p_1781108603474_wyud,1440,960,false,18,female,4,3,null,"<div style=""text-align:center""><p style=""color:#fff;font-size:18px;margin-bottom:12px"">Запомните это лицо</p><img src=""ai_008.png"" style=""width:256px;height:256px;object-fit:contain;border:3px solid #fff;border-radius:4px;background:#808080""></div>",null,,,,,,,,,,,,,,,,,,,,
,,,,,html-keyboard-response,49,124099,0.0-49.0,1,1,2026-06-10 16:23:18,fac33314ff793864f6ca77dbc392f4f8,50.7.47.206,"Mozilla/5.0 (Windows NT 10.0; Win64; x64) AppleWebKit/537.36 (KHTML, like Gecko) Chrome/146.0.0.0 YaBrowser/26.4.0.0 Safari/537.36",desktop,Chrome,146.0.0.0,Windows,10.0,null,"ru,en;q=0.9",p_1781108603474_wyud,1440,960,false,18,female,4,3,null,"<p style=""color:#808080;font-size:1px"">.</p>",null,,,,,,,,,,,,,,,,,,,,
,,,,,html-keyboard-response,50,125571,0.0-50.0,1,1,2026-06-10 16:23:18,fac33314ff793864f6ca77dbc392f4f8,50.7.47.206,"Mozilla/5.0 (Windows NT 10.0; Win64; x64) AppleWebKit/537.36 (KHTML, like Gecko) Chrome/146.0.0.0 YaBrowser/26.4.0.0 Safari/537.36",desktop,Chrome,146.0.0.0,Windows,10.0,null,"ru,en;q=0.9",p_1781108603474_wyud,1440,960,false,18,female,4,3,1470,"<div style=""text-align:center""><img src=""ff_v4_019.png"" style=""max-width:90vw;max-height:72vh;display:block;margin:0 auto""><p style=""color:#fff;font-size:18px;margin-top:16px"">Было ли запомненное лицо в наборе?</p><div class=""keys"" style=""margin-top:12px""><div class=""key"">←<span>НЕ БЫЛО</span></div><div class=""key"">→<span>БЫЛО</span></div></div></div>",arrowleft,true,ff_019,face_face,ai,4,false,ai_008.png,ff_v4_019.png,,arrowleft,1,true,false,true,51,,,,,
,,,,,html-keyboard-response,51,126385,0.0-51.0,1,1,2026-06-10 16:23:18,fac33314ff793864f6ca77dbc392f4f8,50.7.47.206,"Mozilla/5.0 (Windows NT 10.0; Win64; x64) AppleWebKit/537.36 (KHTML, like Gecko) Chrome/146.0.0.0 YaBrowser/26.4.0.0 Safari/537.36",desktop,Chrome,146.0.0.0,Windows,10.0,null,"ru,en;q=0.9",p_1781108603474_wyud,1440,960,false,18,female,4,3,null,"<p class=""fb-yes"">Верно</p>",null,,,,,,,,,,,,,,,,,,,,
,,,,,html-keyboard-response,52,126898,0.0-52.0,1,1,2026-06-10 16:23:18,fac33314ff793864f6ca77dbc392f4f8,50.7.47.206,"Mozilla/5.0 (Windows NT 10.0; Win64; x64) AppleWebKit/537.36 (KHTML, like Gecko) Chrome/146.0.0.0 YaBrowser/26.4.0.0 Safari/537.36",desktop,Chrome,146.0.0.0,Windows,10.0,null,"ru,en;q=0.9",p_1781108603474_wyud,1440,960,false,18,female,4,3,null,"<p style=""color:#808080;font-size:1px"">.</p>",null,,,,,,,,,,,,,,,,,,,,
,,,,,html-button-response,53,132235,0.0-53.0,1,1,2026-06-10 16:23:18,fac33314ff793864f6ca77dbc392f4f8,50.7.47.206,"Mozilla/5.0 (Windows NT 10.0; Win64; x64) AppleWebKit/537.36 (KHTML, like Gecko) Chrome/146.0.0.0 YaBrowser/26.4.0.0 Safari/537.36",desktop,Chrome,146.0.0.0,Windows,10.0,null,"ru,en;q=0.9",p_1781108603474_wyud,1440,960,false,18,female,4,3,5336,"<div class=""box""><h2>Тренировка завершена</h2><p>Начинается основной блок. Обратной связи больше не будет.</p><p>Запоминайте показанное лицо и ищите его в наборе.</p><div class=""keys""><div class=""key"">←<span>НЕ БЫЛО</span></div><div class=""key"">→<span>БЫЛО</span></div></div></div>",0,,,,,,,,,,,,,,,,,,,,
,,,,,html-keyboard-response,54,132744,0.0-54.0,1,1,2026-06-10 16:23:18,fac33314ff793864f6ca77dbc392f4f8,50.7.47.206,"Mozilla/5.0 (Windows NT 10.0; Win64; x64) AppleWebKit/537.36 (KHTML, like Gecko) Chrome/146.0.0.0 YaBrowser/26.4.0.0 Safari/537.36",desktop,Chrome,146.0.0.0,Windows,10.0,null,"ru,en;q=0.9",p_1781108603474_wyud,1440,960,false,18,female,4,3,null,"<p style=""font-size:60px;color:#fff;margin:0"">+</p>",null,,,,,,,,,,,,,,,,,,,,
,,,,,html-keyboard-response,55,134247,0.0-55.0,1,1,2026-06-10 16:23:18,fac33314ff793864f6ca77dbc392f4f8,50.7.47.206,"Mozilla/5.0 (Windows NT 10.0; Win64; x64) AppleWebKit/537.36 (KHTML, like Gecko) Chrome/146.0.0.0 YaBrowser/26.4.0.0 Safari/537.36",desktop,Chrome,146.0.0.0,Windows,10.0,null,"ru,en;q=0.9",p_1781108603474_wyud,1440,960,false,18,female,4,3,null,"<div style=""text-align:center""><p style=""color:#fff;font-size:18px;margin-bottom:12px"">Запомните это лицо</p><img src=""ai_003.png"" style=""width:256px;height:256px;object-fit:contain;border:3px solid #fff;border-radius:4px;background:#808080""></div>",null,,,,,,,,,,,,,,,,,,,,
,,,,,html-keyboard-response,56,134759,0.0-56.0,1,1,2026-06-10 16:23:18,fac33314ff793864f6ca77dbc392f4f8,50.7.47.206,"Mozilla/5.0 (Windows NT 10.0; Win64; x64) AppleWebKit/537.36 (KHTML, like Gecko) Chrome/146.0.0.0 YaBrowser/26.4.0.0 Safari/537.36",desktop,Chrome,146.0.0.0,Windows,10.0,null,"ru,en;q=0.9",p_1781108603474_wyud,1440,960,false,18,female,4,3,null,"<p style=""color:#808080;font-size:1px"">.</p>",null,,,,,,,,,,,,,,,,,,,,
,,,,,html-keyboard-response,57,135507,0.0-57.0,1,1,2026-06-10 16:23:18,fac33314ff793864f6ca77dbc392f4f8,50.7.47.206,"Mozilla/5.0 (Windows NT 10.0; Win64; x64) AppleWebKit/537.36 (KHTML, like Gecko) Chrome/146.0.0.0 YaBrowser/26.4.0.0 Safari/537.36",desktop,Chrome,146.0.0.0,Windows,10.0,null,"ru,en;q=0.9",p_1781108603474_wyud,1440,960,false,18,female,4,3,747,"<div style=""text-align:center""><img src=""ff_v4_032.png"" style=""max-width:90vw;max-height:72vh;display:block;margin:0 auto""><p style=""color:#fff;font-size:18px;margin-top:16px"">Было ли запомненное лицо в наборе?</p><div class=""keys"" style=""margin-top:12px""><div class=""key"">←<span>НЕ БЫЛО</span></div><div class=""key"">→<span>БЫЛО</span></div></div></div>",arrowright,true,ff_032,face_face,ai,4,true,ai_003.png,ff_v4_032.png,4,arrowright,1,false,false,true,58,,,,,
,,,,,html-keyboard-response,58,136009,0.0-58.0,1,1,2026-06-10 16:23:18,fac33314ff793864f6ca77dbc392f4f8,50.7.47.206,"Mozilla/5.0 (Windows NT 10.0; Win64; x64) AppleWebKit/537.36 (KHTML, like Gecko) Chrome/146.0.0.0 YaBrowser/26.4.0.0 Safari/537.36",desktop,Chrome,146.0.0.0,Windows,10.0,null,"ru,en;q=0.9",p_1781108603474_wyud,1440,960,false,18,female,4,3,null,"<p style=""color:#808080;font-size:1px"">.</p>",null,,,,,,,,,,,,,,,,,,,,
,,,,,html-keyboard-response,59,136518,0.0-59.0,1,1,2026-06-10 16:23:18,fac33314ff793864f6ca77dbc392f4f8,50.7.47.206,"Mozilla/5.0 (Windows NT 10.0; Win64; x64) AppleWebKit/537.36 (KHTML, like Gecko) Chrome/146.0.0.0 YaBrowser/26.4.0.0 Safari/537.36",desktop,Chrome,146.0.0.0,Windows,10.0,null,"ru,en;q=0.9",p_1781108603474_wyud,1440,960,false,18,female,4,3,null,"<p style=""font-size:60px;color:#fff;margin:0"">+</p>",null,,,,,,,,,,,,,,,,,,,,
,,,,,html-keyboard-response,60,138032,0.0-60.0,1,1,2026-06-10 16:23:18,fac33314ff793864f6ca77dbc392f4f8,50.7.47.206,"Mozilla/5.0 (Windows NT 10.0; Win64; x64) AppleWebKit/537.36 (KHTML, like Gecko) Chrome/146.0.0.0 YaBrowser/26.4.0.0 Safari/537.36",desktop,Chrome,146.0.0.0,Windows,10.0,null,"ru,en;q=0.9",p_1781108603474_wyud,1440,960,false,18,female,4,3,null,"<div style=""text-align:center""><p style=""color:#fff;font-size:18px;margin-bottom:12px"">Запомните это лицо</p><img src=""real_015.png"" style=""width:256px;height:256px;object-fit:contain;border:3px solid #fff;border-radius:4px;background:#808080""></div>",null,,,,,,,,,,,,,,,,,,,,
,,,,,html-keyboard-response,61,138545,0.0-61.0,1,1,2026-06-10 16:23:18,fac33314ff793864f6ca77dbc392f4f8,50.7.47.206,"Mozilla/5.0 (Windows NT 10.0; Win64; x64) AppleWebKit/537.36 (KHTML, like Gecko) Chrome/146.0.0.0 YaBrowser/26.4.0.0 Safari/537.36",desktop,Chrome,146.0.0.0,Windows,10.0,null,"ru,en;q=0.9",p_1781108603474_wyud,1440,960,false,18,female,4,3,null,"<p style=""color:#808080;font-size:1px"">.</p>",null,,,,,,,,,,,,,,,,,,,,
,,,,,html-keyboard-response,62,140190,0.0-62.0,1,1,2026-06-10 16:23:18,fac33314ff793864f6ca77dbc392f4f8,50.7.47.206,"Mozilla/5.0 (Windows NT 10.0; Win64; x64) AppleWebKit/537.36 (KHTML, like Gecko) Chrome/146.0.0.0 YaBrowser/26.4.0.0 Safari/537.36",desktop,Chrome,146.0.0.0,Windows,10.0,null,"ru,en;q=0.9",p_1781108603474_wyud,1440,960,false,18,female,4,3,1644,"<div style=""text-align:center""><img src=""ff_v4_034.png"" style=""max-width:90vw;max-height:72vh;display:block;margin:0 auto""><p style=""color:#fff;font-size:18px;margin-top:16px"">Было ли запомненное лицо в наборе?</p><div class=""keys"" style=""margin-top:12px""><div class=""key"">←<span>НЕ БЫЛО</span></div><div class=""key"">→<span>БЫЛО</span></div></div></div>",arrowleft,true,ff_034,face_face,real,8,false,real_015.png,ff_v4_034.png,,arrowleft,1,false,false,true,63,,,,,
,,,,,html-keyboard-response,63,140697,0.0-63.0,1,1,2026-06-10 16:23:18,fac33314ff793864f6ca77dbc392f4f8,50.7.47.206,"Mozilla/5.0 (Windows NT 10.0; Win64; x64) AppleWebKit/537.36 (KHTML, like Gecko) Chrome/146.0.0.0 YaBrowser/26.4.0.0 Safari/537.36",desktop,Chrome,146.0.0.0,Windows,10.0,null,"ru,en;q=0.9",p_1781108603474_wyud,1440,960,false,18,female,4,3,null,"<p style=""color:#808080;font-size:1px"">.</p>",null,,,,,,,,,,,,,,,,,,,,
,,,,,html-keyboard-response,64,141209,0.0-64.0,1,1,2026-06-10 16:23:18,fac33314ff793864f6ca77dbc392f4f8,50.7.47.206,"Mozilla/5.0 (Windows NT 10.0; Win64; x64) AppleWebKit/537.36 (KHTML, like Gecko) Chrome/146.0.0.0 YaBrowser/26.4.0.0 Safari/537.36",desktop,Chrome,146.0.0.0,Windows,10.0,null,"ru,en;q=0.9",p_1781108603474_wyud,1440,960,false,18,female,4,3,null,"<p style=""font-size:60px;color:#fff;margin:0"">+</p>",null,,,,,,,,,,,,,,,,,,,,
,,,,,html-keyboard-response,65,142722,0.0-65.0,1,1,2026-06-10 16:23:18,fac33314ff793864f6ca77dbc392f4f8,50.7.47.206,"Mozilla/5.0 (Windows NT 10.0; Win64; x64) AppleWebKit/537.36 (KHTML, like Gecko) Chrome/146.0.0.0 YaBrowser/26.4.0.0 Safari/537.36",desktop,Chrome,146.0.0.0,Windows,10.0,null,"ru,en;q=0.9",p_1781108603474_wyud,1440,960,false,18,female,4,3,null,"<div style=""text-align:center""><p style=""color:#fff;font-size:18px;margin-bottom:12px"">Запомните это лицо</p><img src=""ai_001.png"" style=""width:256px;height:256px;object-fit:contain;border:3px solid #fff;border-radius:4px;background:#808080""></div>",null,,,,,,,,,,,,,,,,,,,,
,,,,,html-keyboard-response,66,143234,0.0-66.0,1,1,2026-06-10 16:23:18,fac33314ff793864f6ca77dbc392f4f8,50.7.47.206,"Mozilla/5.0 (Windows NT 10.0; Win64; x64) AppleWebKit/537.36 (KHTML, like Gecko) Chrome/146.0.0.0 YaBrowser/26.4.0.0 Safari/537.36",desktop,Chrome,146.0.0.0,Windows,10.0,null,"ru,en;q=0.9",p_1781108603474_wyud,1440,960,false,18,female,4,3,null,"<p style=""color:#808080;font-size:1px"">.</p>",null,,,,,,,,,,,,,,,,,,,,
,,,,,html-keyboard-response,67,144679,0.0-67.0,1,1,2026-06-10 16:23:18,fac33314ff793864f6ca77dbc392f4f8,50.7.47.206,"Mozilla/5.0 (Windows NT 10.0; Win64; x64) AppleWebKit/537.36 (KHTML, like Gecko) Chrome/146.0.0.0 YaBrowser/26.4.0.0 Safari/537.36",desktop,Chrome,146.0.0.0,Windows,10.0,null,"ru,en;q=0.9",p_1781108603474_wyud,1440,960,false,18,female,4,3,1444,"<div style=""text-align:center""><img src=""ff_v4_013.png"" style=""max-width:90vw;max-height:72vh;display:block;margin:0 auto""><p style=""color:#fff;font-size:18px;margin-top:16px"">Было ли запомненное лицо в наборе?</p><div class=""keys"" style=""margin-top:12px""><div class=""key"">←<span>НЕ БЫЛО</span></div><div class=""key"">→<span>БЫЛО</span></div></div></div>",arrowright,true,ff_013,face_face,ai,4,true,ai_001.png,ff_v4_013.png,2,arrowright,1,false,false,true,68,,,,,
,,,,,html-keyboard-response,68,145187,0.0-68.0,1,1,2026-06-10 16:23:18,fac33314ff793864f6ca77dbc392f4f8,50.7.47.206,"Mozilla/5.0 (Windows NT 10.0; Win64; x64) AppleWebKit/537.36 (KHTML, like Gecko) Chrome/146.0.0.0 YaBrowser/26.4.0.0 Safari/537.36",desktop,Chrome,146.0.0.0,Windows,10.0,null,"ru,en;q=0.9",p_1781108603474_wyud,1440,960,false,18,female,4,3,null,"<p style=""color:#808080;font-size:1px"">.</p>",null,,,,,,,,,,,,,,,,,,,,
,,,,,html-keyboard-response,69,145697,0.0-69.0,1,1,2026-06-10 16:23:18,fac33314ff793864f6ca77dbc392f4f8,50.7.47.206,"Mozilla/5.0 (Windows NT 10.0; Win64; x64) AppleWebKit/537.36 (KHTML, like Gecko) Chrome/146.0.0.0 YaBrowser/26.4.0.0 Safari/537.36",desktop,Chrome,146.0.0.0,Windows,10.0,null,"ru,en;q=0.9",p_1781108603474_wyud,1440,960,false,18,female,4,3,null,"<p style=""font-size:60px;color:#fff;margin:0"">+</p>",null,,,,,,,,,,,,,,,,,,,,
,,,,,html-keyboard-response,70,147210,0.0-70.0,1,1,2026-06-10 16:23:18,fac33314ff793864f6ca77dbc392f4f8,50.7.47.206,"Mozilla/5.0 (Windows NT 10.0; Win64; x64) AppleWebKit/537.36 (KHTML, like Gecko) Chrome/146.0.0.0 YaBrowser/26.4.0.0 Safari/537.36",desktop,Chrome,146.0.0.0,Windows,10.0,null,"ru,en;q=0.9",p_1781108603474_wyud,1440,960,false,18,female,4,3,null,"<div style=""text-align:center""><p style=""color:#fff;font-size:18px;margin-bottom:12px"">Запомните это лицо</p><img src=""real_010.png"" style=""width:256px;height:256px;object-fit:contain;border:3px solid #fff;border-radius:4px;background:#808080""></div>",null,,,,,,,,,,,,,,,,,,,,
,,,,,html-keyboard-response,71,147722,0.0-71.0,1,1,2026-06-10 16:23:18,fac33314ff793864f6ca77dbc392f4f8,50.7.47.206,"Mozilla/5.0 (Windows NT 10.0; Win64; x64) AppleWebKit/537.36 (KHTML, like Gecko) Chrome/146.0.0.0 YaBrowser/26.4.0.0 Safari/537.36",desktop,Chrome,146.0.0.0,Windows,10.0,null,"ru,en;q=0.9",p_1781108603474_wyud,1440,960,false,18,female,4,3,null,"<p style=""color:#808080;font-size:1px"">.</p>",null,,,,,,,,,,,,,,,,,,,,
,,,,,html-keyboard-response,72,149034,0.0-72.0,1,1,2026-06-10 16:23:18,fac33314ff793864f6ca77dbc392f4f8,50.7.47.206,"Mozilla/5.0 (Windows NT 10.0; Win64; x64) AppleWebKit/537.36 (KHTML, like Gecko) Chrome/146.0.0.0 YaBrowser/26.4.0.0 Safari/537.36",desktop,Chrome,146.0.0.0,Windows,10.0,null,"ru,en;q=0.9",p_1781108603474_wyud,1440,960,false,18,female,4,3,1311,"<div style=""text-align:center""><img src=""ff_v4_024.png"" style=""max-width:90vw;max-height:72vh;display:block;margin:0 auto""><p style=""color:#fff;font-size:18px;margin-top:16px"">Было ли запомненное лицо в наборе?</p><div class=""keys"" style=""margin-top:12px""><div class=""key"">←<span>НЕ БЫЛО</span></div><div class=""key"">→<span>БЫЛО</span></div></div></div>",arrowleft,true,ff_024,face_face,real,4,false,real_010.png,ff_v4_024.png,,arrowleft,1,false,false,true,73,,,,,
,,,,,html-keyboard-response,73,149549,0.0-73.0,1,1,2026-06-10 16:23:18,fac33314ff793864f6ca77dbc392f4f8,50.7.47.206,"Mozilla/5.0 (Windows NT 10.0; Win64; x64) AppleWebKit/537.36 (KHTML, like Gecko) Chrome/146.0.0.0 YaBrowser/26.4.0.0 Safari/537.36",desktop,Chrome,146.0.0.0,Windows,10.0,null,"ru,en;q=0.9",p_1781108603474_wyud,1440,960,false,18,female,4,3,null,"<p style=""color:#808080;font-size:1px"">.</p>",null,,,,,,,,,,,,,,,,,,,,
,,,,,html-keyboard-response,74,150060,0.0-74.0,1,1,2026-06-10 16:23:18,fac33314ff793864f6ca77dbc392f4f8,50.7.47.206,"Mozilla/5.0 (Windows NT 10.0; Win64; x64) AppleWebKit/537.36 (KHTML, like Gecko) Chrome/146.0.0.0 YaBrowser/26.4.0.0 Safari/537.36",desktop,Chrome,146.0.0.0,Windows,10.0,null,"ru,en;q=0.9",p_1781108603474_wyud,1440,960,false,18,female,4,3,null,"<p style=""font-size:60px;color:#fff;margin:0"">+</p>",null,,,,,,,,,,,,,,,,,,,,
,,,,,html-keyboard-response,75,151569,0.0-75.0,1,1,2026-06-10 16:23:18,fac33314ff793864f6ca77dbc392f4f8,50.7.47.206,"Mozilla/5.0 (Windows NT 10.0; Win64; x64) AppleWebKit/537.36 (KHTML, like Gecko) Chrome/146.0.0.0 YaBrowser/26.4.0.0 Safari/537.36",desktop,Chrome,146.0.0.0,Windows,10.0,null,"ru,en;q=0.9",p_1781108603474_wyud,1440,960,false,18,female,4,3,null,"<div style=""text-align:center""><p style=""color:#fff;font-size:18px;margin-bottom:12px"">Запомните это лицо</p><img src=""real_039.png"" style=""width:256px;height:256px;object-fit:contain;border:3px solid #fff;border-radius:4px;background:#808080""></div>",null,,,,,,,,,,,,,,,,,,,,
,,,,,html-keyboard-response,76,152080,0.0-76.0,1,1,2026-06-10 16:23:18,fac33314ff793864f6ca77dbc392f4f8,50.7.47.206,"Mozilla/5.0 (Windows NT 10.0; Win64; x64) AppleWebKit/537.36 (KHTML, like Gecko) Chrome/146.0.0.0 YaBrowser/26.4.0.0 Safari/537.36",desktop,Chrome,146.0.0.0,Windows,10.0,null,"ru,en;q=0.9",p_1781108603474_wyud,1440,960,false,18,female,4,3,null,"<p style=""color:#808080;font-size:1px"">.</p>",null,,,,,,,,,,,,,,,,,,,,
,,,,,html-keyboard-response,77,154390,0.0-77.0,1,1,2026-06-10 16:23:18,fac33314ff793864f6ca77dbc392f4f8,50.7.47.206,"Mozilla/5.0 (Windows NT 10.0; Win64; x64) AppleWebKit/537.36 (KHTML, like Gecko) Chrome/146.0.0.0 YaBrowser/26.4.0.0 Safari/537.36",desktop,Chrome,146.0.0.0,Windows,10.0,null,"ru,en;q=0.9",p_1781108603474_wyud,1440,960,false,18,female,4,3,2309,"<div style=""text-align:center""><img src=""ff_v4_027.png"" style=""max-width:90vw;max-height:72vh;display:block;margin:0 auto""><p style=""color:#fff;font-size:18px;margin-top:16px"">Было ли запомненное лицо в наборе?</p><div class=""keys"" style=""margin-top:12px""><div class=""key"">←<span>НЕ БЫЛО</span></div><div class=""key"">→<span>БЫЛО</span></div></div></div>",arrowleft,true,ff_027,face_face,real,4,false,real_039.png,ff_v4_027.png,,arrowleft,1,false,false,true,78,,,,,
,,,,,html-keyboard-response,78,154906,0.0-78.0,1,1,2026-06-10 16:23:18,fac33314ff793864f6ca77dbc392f4f8,50.7.47.206,"Mozilla/5.0 (Windows NT 10.0; Win64; x64) AppleWebKit/537.36 (KHTML, like Gecko) Chrome/146.0.0.0 YaBrowser/26.4.0.0 Safari/537.36",desktop,Chrome,146.0.0.0,Windows,10.0,null,"ru,en;q=0.9",p_1781108603474_wyud,1440,960,false,18,female,4,3,null,"<p style=""color:#808080;font-size:1px"">.</p>",null,,,,,,,,,,,,,,,,,,,,
,,,,,html-keyboard-response,79,155413,0.0-79.0,1,1,2026-06-10 16:23:18,fac33314ff793864f6ca77dbc392f4f8,50.7.47.206,"Mozilla/5.0 (Windows NT 10.0; Win64; x64) AppleWebKit/537.36 (KHTML, like Gecko) Chrome/146.0.0.0 YaBrowser/26.4.0.0 Safari/537.36",desktop,Chrome,146.0.0.0,Windows,10.0,null,"ru,en;q=0.9",p_1781108603474_wyud,1440,960,false,18,female,4,3,null,"<p style=""font-size:60px;color:#fff;margin:0"">+</p>",null,,,,,,,,,,,,,,,,,,,,
,,,,,html-keyboard-response,80,156930,0.0-80.0,1,1,2026-06-10 16:23:18,fac33314ff793864f6ca77dbc392f4f8,50.7.47.206,"Mozilla/5.0 (Windows NT 10.0; Win64; x64) AppleWebKit/537.36 (KHTML, like Gecko) Chrome/146.0.0.0 YaBrowser/26.4.0.0 Safari/537.36",desktop,Chrome,146.0.0.0,Windows,10.0,null,"ru,en;q=0.9",p_1781108603474_wyud,1440,960,false,18,female,4,3,null,"<div style=""text-align:center""><p style=""color:#fff;font-size:18px;margin-bottom:12px"">Запомните это лицо</p><img src=""ai_007.png"" style=""width:256px;height:256px;object-fit:contain;border:3px solid #fff;border-radius:4px;background:#808080""></div>",null,,,,,,,,,,,,,,,,,,,,
,,,,,html-keyboard-response,81,157444,0.0-81.0,1,1,2026-06-10 16:23:18,fac33314ff793864f6ca77dbc392f4f8,50.7.47.206,"Mozilla/5.0 (Windows NT 10.0; Win64; x64) AppleWebKit/537.36 (KHTML, like Gecko) Chrome/146.0.0.0 YaBrowser/26.4.0.0 Safari/537.36",desktop,Chrome,146.0.0.0,Windows,10.0,null,"ru,en;q=0.9",p_1781108603474_wyud,1440,960,false,18,female,4,3,null,"<p style=""color:#808080;font-size:1px"">.</p>",null,,,,,,,,,,,,,,,,,,,,
,,,,,html-keyboard-response,82,159308,0.0-82.0,1,1,2026-06-10 16:23:18,fac33314ff793864f6ca77dbc392f4f8,50.7.47.206,"Mozilla/5.0 (Windows NT 10.0; Win64; x64) AppleWebKit/537.36 (KHTML, like Gecko) Chrome/146.0.0.0 YaBrowser/26.4.0.0 Safari/537.36",desktop,Chrome,146.0.0.0,Windows,10.0,null,"ru,en;q=0.9",p_1781108603474_wyud,1440,960,false,18,female,4,3,1862,"<div style=""text-align:center""><img src=""ff_v4_031.png"" style=""max-width:90vw;max-height:72vh;display:block;margin:0 auto""><p style=""color:#fff;font-size:18px;margin-top:16px"">Было ли запомненное лицо в наборе?</p><div class=""keys"" style=""margin-top:12px""><div class=""key"">←<span>НЕ БЫЛО</span></div><div class=""key"">→<span>БЫЛО</span></div></div></div>",arrowright,true,ff_031,face_face,ai,8,true,ai_007.png,ff_v4_031.png,8,arrowright,1,false,false,true,83,,,,,
,,,,,html-keyboard-response,83,159821,0.0-83.0,1,1,2026-06-10 16:23:18,fac33314ff793864f6ca77dbc392f4f8,50.7.47.206,"Mozilla/5.0 (Windows NT 10.0; Win64; x64) AppleWebKit/537.36 (KHTML, like Gecko) Chrome/146.0.0.0 YaBrowser/26.4.0.0 Safari/537.36",desktop,Chrome,146.0.0.0,Windows,10.0,null,"ru,en;q=0.9",p_1781108603474_wyud,1440,960,false,18,female,4,3,null,"<p style=""color:#808080;font-size:1px"">.</p>",null,,,,,,,,,,,,,,,,,,,,
,,,,,html-keyboard-response,84,160334,0.0-84.0,1,1,2026-06-10 16:23:18,fac33314ff793864f6ca77dbc392f4f8,50.7.47.206,"Mozilla/5.0 (Windows NT 10.0; Win64; x64) AppleWebKit/537.36 (KHTML, like Gecko) Chrome/146.0.0.0 YaBrowser/26.4.0.0 Safari/537.36",desktop,Chrome,146.0.0.0,Windows,10.0,null,"ru,en;q=0.9",p_1781108603474_wyud,1440,960,false,18,female,4,3,null,"<p style=""font-size:60px;color:#fff;margin:0"">+</p>",null,,,,,,,,,,,,,,,,,,,,
,,,,,html-keyboard-response,85,161836,0.0-85.0,1,1,2026-06-10 16:23:18,fac33314ff793864f6ca77dbc392f4f8,50.7.47.206,"Mozilla/5.0 (Windows NT 10.0; Win64; x64) AppleWebKit/537.36 (KHTML, like Gecko) Chrome/146.0.0.0 YaBrowser/26.4.0.0 Safari/537.36",desktop,Chrome,146.0.0.0,Windows,10.0,null,"ru,en;q=0.9",p_1781108603474_wyud,1440,960,false,18,female,4,3,null,"<div style=""text-align:center""><p style=""color:#fff;font-size:18px;margin-bottom:12px"">Запомните это лицо</p><img src=""real_003.png"" style=""width:256px;height:256px;object-fit:contain;border:3px solid #fff;border-radius:4px;background:#808080""></div>",null,,,,,,,,,,,,,,,,,,,,
,,,,,html-keyboard-response,86,162343,0.0-86.0,1,1,2026-06-10 16:23:18,fac33314ff793864f6ca77dbc392f4f8,50.7.47.206,"Mozilla/5.0 (Windows NT 10.0; Win64; x64) AppleWebKit/537.36 (KHTML, like Gecko) Chrome/146.0.0.0 YaBrowser/26.4.0.0 Safari/537.36",desktop,Chrome,146.0.0.0,Windows,10.0,null,"ru,en;q=0.9",p_1781108603474_wyud,1440,960,false,18,female,4,3,null,"<p style=""color:#808080;font-size:1px"">.</p>",null,,,,,,,,,,,,,,,,,,,,
,,,,,html-keyboard-response,87,163306,0.0-87.0,1,1,2026-06-10 16:23:18,fac33314ff793864f6ca77dbc392f4f8,50.7.47.206,"Mozilla/5.0 (Windows NT 10.0; Win64; x64) AppleWebKit/537.36 (KHTML, like Gecko) Chrome/146.0.0.0 YaBrowser/26.4.0.0 Safari/537.36",desktop,Chrome,146.0.0.0,Windows,10.0,null,"ru,en;q=0.9",p_1781108603474_wyud,1440,960,false,18,female,4,3,962,"<div style=""text-align:center""><img src=""ff_v4_015.png"" style=""max-width:90vw;max-height:72vh;display:block;margin:0 auto""><p style=""color:#fff;font-size:18px;margin-top:16px"">Было ли запомненное лицо в наборе?</p><div class=""keys"" style=""margin-top:12px""><div class=""key"">←<span>НЕ БЫЛО</span></div><div class=""key"">→<span>БЫЛО</span></div></div></div>",arrowright,true,ff_015,face_face,real,8,true,real_003.png,ff_v4_015.png,6,arrowright,1,false,false,true,88,,,,,
,,,,,html-keyboard-response,88,163806,0.0-88.0,1,1,2026-06-10 16:23:18,fac33314ff793864f6ca77dbc392f4f8,50.7.47.206,"Mozilla/5.0 (Windows NT 10.0; Win64; x64) AppleWebKit/537.36 (KHTML, like Gecko) Chrome/146.0.0.0 YaBrowser/26.4.0.0 Safari/537.36",desktop,Chrome,146.0.0.0,Windows,10.0,null,"ru,en;q=0.9",p_1781108603474_wyud,1440,960,false,18,female,4,3,null,"<p style=""color:#808080;font-size:1px"">.</p>",null,,,,,,,,,,,,,,,,,,,,
,,,,,html-keyboard-response,89,164313,0.0-89.0,1,1,2026-06-10 16:23:18,fac33314ff793864f6ca77dbc392f4f8,50.7.47.206,"Mozilla/5.0 (Windows NT 10.0; Win64; x64) AppleWebKit/537.36 (KHTML, like Gecko) Chrome/146.0.0.0 YaBrowser/26.4.0.0 Safari/537.36",desktop,Chrome,146.0.0.0,Windows,10.0,null,"ru,en;q=0.9",p_1781108603474_wyud,1440,960,false,18,female,4,3,null,"<p style=""font-size:60px;color:#fff;margin:0"">+</p>",null,,,,,,,,,,,,,,,,,,,,
,,,,,html-keyboard-response,90,165823,0.0-90.0,1,1,2026-06-10 16:23:18,fac33314ff793864f6ca77dbc392f4f8,50.7.47.206,"Mozilla/5.0 (Windows NT 10.0; Win64; x64) AppleWebKit/537.36 (KHTML, like Gecko) Chrome/146.0.0.0 YaBrowser/26.4.0.0 Safari/537.36",desktop,Chrome,146.0.0.0,Windows,10.0,null,"ru,en;q=0.9",p_1781108603474_wyud,1440,960,false,18,female,4,3,null,"<div style=""text-align:center""><p style=""color:#fff;font-size:18px;margin-bottom:12px"">Запомните это лицо</p><img src=""ai_006.png"" style=""width:256px;height:256px;object-fit:contain;border:3px solid #fff;border-radius:4px;background:#808080""></div>",null,,,,,,,,,,,,,,,,,,,,
,,,,,html-keyboard-response,91,166330,0.0-91.0,1,1,2026-06-10 16:23:18,fac33314ff793864f6ca77dbc392f4f8,50.7.47.206,"Mozilla/5.0 (Windows NT 10.0; Win64; x64) AppleWebKit/537.36 (KHTML, like Gecko) Chrome/146.0.0.0 YaBrowser/26.4.0.0 Safari/537.36",desktop,Chrome,146.0.0.0,Windows,10.0,null,"ru,en;q=0.9",p_1781108603474_wyud,1440,960,false,18,female,4,3,null,"<p style=""color:#808080;font-size:1px"">.</p>",null,,,,,,,,,,,,,,,,,,,,
,,,,,html-keyboard-response,92,167328,0.0-92.0,1,1,2026-06-10 16:23:18,fac33314ff793864f6ca77dbc392f4f8,50.7.47.206,"Mozilla/5.0 (Windows NT 10.0; Win64; x64) AppleWebKit/537.36 (KHTML, like Gecko) Chrome/146.0.0.0 YaBrowser/26.4.0.0 Safari/537.36",desktop,Chrome,146.0.0.0,Windows,10.0,null,"ru,en;q=0.9",p_1781108603474_wyud,1440,960,false,18,female,4,3,997,"<div style=""text-align:center""><img src=""ff_v4_006.png"" style=""max-width:90vw;max-height:72vh;display:block;margin:0 auto""><p style=""color:#fff;font-size:18px;margin-top:16px"">Было ли запомненное лицо в наборе?</p><div class=""keys"" style=""margin-top:12px""><div class=""key"">←<span>НЕ БЫЛО</span></div><div class=""key"">→<span>БЫЛО</span></div></div></div>",arrowright,true,ff_006,face_face,ai,4,true,ai_006.png,ff_v4_006.png,1,arrowright,1,false,false,true,93,,,,,
,,,,,html-keyboard-response,93,167829,0.0-93.0,1,1,2026-06-10 16:23:18,fac33314ff793864f6ca77dbc392f4f8,50.7.47.206,"Mozilla/5.0 (Windows NT 10.0; Win64; x64) AppleWebKit/537.36 (KHTML, like Gecko) Chrome/146.0.0.0 YaBrowser/26.4.0.0 Safari/537.36",desktop,Chrome,146.0.0.0,Windows,10.0,null,"ru,en;q=0.9",p_1781108603474_wyud,1440,960,false,18,female,4,3,null,"<p style=""color:#808080;font-size:1px"">.</p>",null,,,,,,,,,,,,,,,,,,,,
,,,,,html-keyboard-response,94,168335,0.0-94.0,1,1,2026-06-10 16:23:18,fac33314ff793864f6ca77dbc392f4f8,50.7.47.206,"Mozilla/5.0 (Windows NT 10.0; Win64; x64) AppleWebKit/537.36 (KHTML, like Gecko) Chrome/146.0.0.0 YaBrowser/26.4.0.0 Safari/537.36",desktop,Chrome,146.0.0.0,Windows,10.0,null,"ru,en;q=0.9",p_1781108603474_wyud,1440,960,false,18,female,4,3,null,"<p style=""font-size:60px;color:#fff;margin:0"">+</p>",null,,,,,,,,,,,,,,,,,,,,
,,,,,html-keyboard-response,95,169848,0.0-95.0,1,1,2026-06-10 16:23:18,fac33314ff793864f6ca77dbc392f4f8,50.7.47.206,"Mozilla/5.0 (Windows NT 10.0; Win64; x64) AppleWebKit/537.36 (KHTML, like Gecko) Chrome/146.0.0.0 YaBrowser/26.4.0.0 Safari/537.36",desktop,Chrome,146.0.0.0,Windows,10.0,null,"ru,en;q=0.9",p_1781108603474_wyud,1440,960,false,18,female,4,3,null,"<div style=""text-align:center""><p style=""color:#fff;font-size:18px;margin-bottom:12px"">Запомните это лицо</p><img src=""real_002.png"" style=""width:256px;height:256px;object-fit:contain;border:3px solid #fff;border-radius:4px;background:#808080""></div>",null,,,,,,,,,,,,,,,,,,,,
,,,,,html-keyboard-response,96,170356,0.0-96.0,1,1,2026-06-10 16:23:18,fac33314ff793864f6ca77dbc392f4f8,50.7.47.206,"Mozilla/5.0 (Windows NT 10.0; Win64; x64) AppleWebKit/537.36 (KHTML, like Gecko) Chrome/146.0.0.0 YaBrowser/26.4.0.0 Safari/537.36",desktop,Chrome,146.0.0.0,Windows,10.0,null,"ru,en;q=0.9",p_1781108603474_wyud,1440,960,false,18,female,4,3,null,"<p style=""color:#808080;font-size:1px"">.</p>",null,,,,,,,,,,,,,,,,,,,,
,,,,,html-keyboard-response,97,171435,0.0-97.0,1,1,2026-06-10 16:23:18,fac33314ff793864f6ca77dbc392f4f8,50.7.47.206,"Mozilla/5.0 (Windows NT 10.0; Win64; x64) AppleWebKit/537.36 (KHTML, like Gecko) Chrome/146.0.0.0 YaBrowser/26.4.0.0 Safari/537.36",desktop,Chrome,146.0.0.0,Windows,10.0,null,"ru,en;q=0.9",p_1781108603474_wyud,1440,960,false,18,female,4,3,1078,"<div style=""text-align:center""><img src=""ff_v4_007.png"" style=""max-width:90vw;max-height:72vh;display:block;margin:0 auto""><p style=""color:#fff;font-size:18px;margin-top:16px"">Было ли запомненное лицо в наборе?</p><div class=""keys"" style=""margin-top:12px""><div class=""key"">←<span>НЕ БЫЛО</span></div><div class=""key"">→<span>БЫЛО</span></div></div></div>",arrowright,true,ff_007,face_face,real,8,true,real_002.png,ff_v4_007.png,5,arrowright,1,false,false,true,98,,,,,
,,,,,html-keyboard-response,98,171936,0.0-98.0,1,1,2026-06-10 16:23:18,fac33314ff793864f6ca77dbc392f4f8,50.7.47.206,"Mozilla/5.0 (Windows NT 10.0; Win64; x64) AppleWebKit/537.36 (KHTML, like Gecko) Chrome/146.0.0.0 YaBrowser/26.4.0.0 Safari/537.36",desktop,Chrome,146.0.0.0,Windows,10.0,null,"ru,en;q=0.9",p_1781108603474_wyud,1440,960,false,18,female,4,3,null,"<p style=""color:#808080;font-size:1px"">.</p>",null,,,,,,,,,,,,,,,,,,,,
,,,,,html-keyboard-response,99,172442,0.0-99.0,1,1,2026-06-10 16:23:18,fac33314ff793864f6ca77dbc392f4f8,50.7.47.206,"Mozilla/5.0 (Windows NT 10.0; Win64; x64) AppleWebKit/537.36 (KHTML, like Gecko) Chrome/146.0.0.0 YaBrowser/26.4.0.0 Safari/537.36",desktop,Chrome,146.0.0.0,Windows,10.0,null,"ru,en;q=0.9",p_1781108603474_wyud,1440,960,false,18,female,4,3,null,"<p style=""font-size:60px;color:#fff;margin:0"">+</p>",null,,,,,,,,,,,,,,,,,,,,
,,,,,html-keyboard-response,100,173950,0.0-100.0,1,1,2026-06-10 16:23:18,fac33314ff793864f6ca77dbc392f4f8,50.7.47.206,"Mozilla/5.0 (Windows NT 10.0; Win64; x64) AppleWebKit/537.36 (KHTML, like Gecko) Chrome/146.0.0.0 YaBrowser/26.4.0.0 Safari/537.36",desktop,Chrome,146.0.0.0,Windows,10.0,null,"ru,en;q=0.9",p_1781108603474_wyud,1440,960,false,18,female,4,3,null,"<div style=""text-align:center""><p style=""color:#fff;font-size:18px;margin-bottom:12px"">Запомните это лицо</p><img src=""ai_008.png"" style=""width:256px;height:256px;object-fit:contain;border:3px solid #fff;border-radius:4px;background:#808080""></div>",null,,,,,,,,,,,,,,,,,,,,
,,,,,html-keyboard-response,101,174457,0.0-101.0,1,1,2026-06-10 16:23:18,fac33314ff793864f6ca77dbc392f4f8,50.7.47.206,"Mozilla/5.0 (Windows NT 10.0; Win64; x64) AppleWebKit/537.36 (KHTML, like Gecko) Chrome/146.0.0.0 YaBrowser/26.4.0.0 Safari/537.36",desktop,Chrome,146.0.0.0,Windows,10.0,null,"ru,en;q=0.9",p_1781108603474_wyud,1440,960,false,18,female,4,3,null,"<p style=""color:#808080;font-size:1px"">.</p>",null,,,,,,,,,,,,,,,,,,,,
,,,,,html-keyboard-response,102,177215,0.0-102.0,1,1,2026-06-10 16:23:18,fac33314ff793864f6ca77dbc392f4f8,50.7.47.206,"Mozilla/5.0 (Windows NT 10.0; Win64; x64) AppleWebKit/537.36 (KHTML, like Gecko) Chrome/146.0.0.0 YaBrowser/26.4.0.0 Safari/537.36",desktop,Chrome,146.0.0.0,Windows,10.0,null,"ru,en;q=0.9",p_1781108603474_wyud,1440,960,false,18,female,4,3,2757,"<div style=""text-align:center""><img src=""ff_v4_014.png"" style=""max-width:90vw;max-height:72vh;display:block;margin:0 auto""><p style=""color:#fff;font-size:18px;margin-top:16px"">Было ли запомненное лицо в наборе?</p><div class=""keys"" style=""margin-top:12px""><div class=""key"">←<span>НЕ БЫЛО</span></div><div class=""key"">→<span>БЫЛО</span></div></div></div>",arrowright,true,ff_014,face_face,ai,8,true,ai_008.png,ff_v4_014.png,8,arrowright,1,false,false,true,103,,,,,
,,,,,html-keyboard-response,103,177718,0.0-103.0,1,1,2026-06-10 16:23:18,fac33314ff793864f6ca77dbc392f4f8,50.7.47.206,"Mozilla/5.0 (Windows NT 10.0; Win64; x64) AppleWebKit/537.36 (KHTML, like Gecko) Chrome/146.0.0.0 YaBrowser/26.4.0.0 Safari/537.36",desktop,Chrome,146.0.0.0,Windows,10.0,null,"ru,en;q=0.9",p_1781108603474_wyud,1440,960,false,18,female,4,3,null,"<p style=""color:#808080;font-size:1px"">.</p>",null,,,,,,,,,,,,,,,,,,,,
,,,,,html-keyboard-response,104,178222,0.0-104.0,1,1,2026-06-10 16:23:18,fac33314ff793864f6ca77dbc392f4f8,50.7.47.206,"Mozilla/5.0 (Windows NT 10.0; Win64; x64) AppleWebKit/537.36 (KHTML, like Gecko) Chrome/146.0.0.0 YaBrowser/26.4.0.0 Safari/537.36",desktop,Chrome,146.0.0.0,Windows,10.0,null,"ru,en;q=0.9",p_1781108603474_wyud,1440,960,false,18,female,4,3,null,"<p style=""font-size:60px;color:#fff;margin:0"">+</p>",null,,,,,,,,,,,,,,,,,,,,
,,,,,html-keyboard-response,105,179726,0.0-105.0,1,1,2026-06-10 16:23:18,fac33314ff793864f6ca77dbc392f4f8,50.7.47.206,"Mozilla/5.0 (Windows NT 10.0; Win64; x64) AppleWebKit/537.36 (KHTML, like Gecko) Chrome/146.0.0.0 YaBrowser/26.4.0.0 Safari/537.36",desktop,Chrome,146.0.0.0,Windows,10.0,null,"ru,en;q=0.9",p_1781108603474_wyud,1440,960,false,18,female,4,3,null,"<div style=""text-align:center""><p style=""color:#fff;font-size:18px;margin-bottom:12px"">Запомните это лицо</p><img src=""ai_004.png"" style=""width:256px;height:256px;object-fit:contain;border:3px solid #fff;border-radius:4px;background:#808080""></div>",null,,,,,,,,,,,,,,,,,,,,
,,,,,html-keyboard-response,106,180233,0.0-106.0,1,1,2026-06-10 16:23:18,fac33314ff793864f6ca77dbc392f4f8,50.7.47.206,"Mozilla/5.0 (Windows NT 10.0; Win64; x64) AppleWebKit/537.36 (KHTML, like Gecko) Chrome/146.0.0.0 YaBrowser/26.4.0.0 Safari/537.36",desktop,Chrome,146.0.0.0,Windows,10.0,null,"ru,en;q=0.9",p_1781108603474_wyud,1440,960,false,18,female,4,3,null,"<p style=""color:#808080;font-size:1px"">.</p>",null,,,,,,,,,,,,,,,,,,,,
,,,,,html-keyboard-response,107,182422,0.0-107.0,1,1,2026-06-10 16:23:18,fac33314ff793864f6ca77dbc392f4f8,50.7.47.206,"Mozilla/5.0 (Windows NT 10.0; Win64; x64) AppleWebKit/537.36 (KHTML, like Gecko) Chrome/146.0.0.0 YaBrowser/26.4.0.0 Safari/537.36",desktop,Chrome,146.0.0.0,Windows,10.0,null,"ru,en;q=0.9",p_1781108603474_wyud,1440,960,false,18,female,4,3,2188,"<div style=""text-align:center""><img src=""ff_v4_017.png"" style=""max-width:90vw;max-height:72vh;display:block;margin:0 auto""><p style=""color:#fff;font-size:18px;margin-top:16px"">Было ли запомненное лицо в наборе?</p><div class=""keys"" style=""margin-top:12px""><div class=""key"">←<span>НЕ БЫЛО</span></div><div class=""key"">→<span>БЫЛО</span></div></div></div>",arrowright,true,ff_017,face_face,ai,8,true,ai_004.png,ff_v4_017.png,7,arrowright,1,false,false,true,108,,,,,
,,,,,html-keyboard-response,108,182928,0.0-108.0,1,1,2026-06-10 16:23:18,fac33314ff793864f6ca77dbc392f4f8,50.7.47.206,"Mozilla/5.0 (Windows NT 10.0; Win64; x64) AppleWebKit/537.36 (KHTML, like Gecko) Chrome/146.0.0.0 YaBrowser/26.4.0.0 Safari/537.36",desktop,Chrome,146.0.0.0,Windows,10.0,null,"ru,en;q=0.9",p_1781108603474_wyud,1440,960,false,18,female,4,3,null,"<p style=""color:#808080;font-size:1px"">.</p>",null,,,,,,,,,,,,,,,,,,,,
,,,,,html-keyboard-response,109,183434,0.0-109.0,1,1,2026-06-10 16:23:18,fac33314ff793864f6ca77dbc392f4f8,50.7.47.206,"Mozilla/5.0 (Windows NT 10.0; Win64; x64) AppleWebKit/537.36 (KHTML, like Gecko) Chrome/146.0.0.0 YaBrowser/26.4.0.0 Safari/537.36",desktop,Chrome,146.0.0.0,Windows,10.0,null,"ru,en;q=0.9",p_1781108603474_wyud,1440,960,false,18,female,4,3,null,"<p style=""font-size:60px;color:#fff;margin:0"">+</p>",null,,,,,,,,,,,,,,,,,,,,
,,,,,html-keyboard-response,110,184937,0.0-110.0,1,1,2026-06-10 16:23:18,fac33314ff793864f6ca77dbc392f4f8,50.7.47.206,"Mozilla/5.0 (Windows NT 10.0; Win64; x64) AppleWebKit/537.36 (KHTML, like Gecko) Chrome/146.0.0.0 YaBrowser/26.4.0.0 Safari/537.36",desktop,Chrome,146.0.0.0,Windows,10.0,null,"ru,en;q=0.9",p_1781108603474_wyud,1440,960,false,18,female,4,3,null,"<div style=""text-align:center""><p style=""color:#fff;font-size:18px;margin-bottom:12px"">Запомните это лицо</p><img src=""ai_005.png"" style=""width:256px;height:256px;object-fit:contain;border:3px solid #fff;border-radius:4px;background:#808080""></div>",null,,,,,,,,,,,,,,,,,,,,
,,,,,html-keyboard-response,111,185444,0.0-111.0,1,1,2026-06-10 16:23:18,fac33314ff793864f6ca77dbc392f4f8,50.7.47.206,"Mozilla/5.0 (Windows NT 10.0; Win64; x64) AppleWebKit/537.36 (KHTML, like Gecko) Chrome/146.0.0.0 YaBrowser/26.4.0.0 Safari/537.36",desktop,Chrome,146.0.0.0,Windows,10.0,null,"ru,en;q=0.9",p_1781108603474_wyud,1440,960,false,18,female,4,3,null,"<p style=""color:#808080;font-size:1px"">.</p>",null,,,,,,,,,,,,,,,,,,,,
,,,,,html-keyboard-response,112,187134,0.0-112.0,1,1,2026-06-10 16:23:18,fac33314ff793864f6ca77dbc392f4f8,50.7.47.206,"Mozilla/5.0 (Windows NT 10.0; Win64; x64) AppleWebKit/537.36 (KHTML, like Gecko) Chrome/146.0.0.0 YaBrowser/26.4.0.0 Safari/537.36",desktop,Chrome,146.0.0.0,Windows,10.0,null,"ru,en;q=0.9",p_1781108603474_wyud,1440,960,false,18,female,4,3,1689,"<div style=""text-align:center""><img src=""ff_v4_011.png"" style=""max-width:90vw;max-height:72vh;display:block;margin:0 auto""><p style=""color:#fff;font-size:18px;margin-top:16px"">Было ли запомненное лицо в наборе?</p><div class=""keys"" style=""margin-top:12px""><div class=""key"">←<span>НЕ БЫЛО</span></div><div class=""key"">→<span>БЫЛО</span></div></div></div>",arrowright,true,ff_011,face_face,ai,8,true,ai_005.png,ff_v4_011.png,6,arrowright,1,false,false,true,113,,,,,
,,,,,html-keyboard-response,113,187650,0.0-113.0,1,1,2026-06-10 16:23:18,fac33314ff793864f6ca77dbc392f4f8,50.7.47.206,"Mozilla/5.0 (Windows NT 10.0; Win64; x64) AppleWebKit/537.36 (KHTML, like Gecko) Chrome/146.0.0.0 YaBrowser/26.4.0.0 Safari/537.36",desktop,Chrome,146.0.0.0,Windows,10.0,null,"ru,en;q=0.9",p_1781108603474_wyud,1440,960,false,18,female,4,3,null,"<p style=""color:#808080;font-size:1px"">.</p>",null,,,,,,,,,,,,,,,,,,,,
,,,,,html-keyboard-response,114,188160,0.0-114.0,1,1,2026-06-10 16:23:18,fac33314ff793864f6ca77dbc392f4f8,50.7.47.206,"Mozilla/5.0 (Windows NT 10.0; Win64; x64) AppleWebKit/537.36 (KHTML, like Gecko) Chrome/146.0.0.0 YaBrowser/26.4.0.0 Safari/537.36",desktop,Chrome,146.0.0.0,Windows,10.0,null,"ru,en;q=0.9",p_1781108603474_wyud,1440,960,false,18,female,4,3,null,"<p style=""font-size:60px;color:#fff;margin:0"">+</p>",null,,,,,,,,,,,,,,,,,,,,
,,,,,html-keyboard-response,115,189666,0.0-115.0,1,1,2026-06-10 16:23:18,fac33314ff793864f6ca77dbc392f4f8,50.7.47.206,"Mozilla/5.0 (Windows NT 10.0; Win64; x64) AppleWebKit/537.36 (KHTML, like Gecko) Chrome/146.0.0.0 YaBrowser/26.4.0.0 Safari/537.36",desktop,Chrome,146.0.0.0,Windows,10.0,null,"ru,en;q=0.9",p_1781108603474_wyud,1440,960,false,18,female,4,3,null,"<div style=""text-align:center""><p style=""color:#fff;font-size:18px;margin-bottom:12px"">Запомните это лицо</p><img src=""real_015.png"" style=""width:256px;height:256px;object-fit:contain;border:3px solid #fff;border-radius:4px;background:#808080""></div>",null,,,,,,,,,,,,,,,,,,,,
,,,,,html-keyboard-response,116,190173,0.0-116.0,1,1,2026-06-10 16:23:18,fac33314ff793864f6ca77dbc392f4f8,50.7.47.206,"Mozilla/5.0 (Windows NT 10.0; Win64; x64) AppleWebKit/537.36 (KHTML, like Gecko) Chrome/146.0.0.0 YaBrowser/26.4.0.0 Safari/537.36",desktop,Chrome,146.0.0.0,Windows,10.0,null,"ru,en;q=0.9",p_1781108603474_wyud,1440,960,false,18,female,4,3,null,"<p style=""color:#808080;font-size:1px"">.</p>",null,,,,,,,,,,,,,,,,,,,,
,,,,,html-keyboard-response,117,191456,0.0-117.0,1,1,2026-06-10 16:23:18,fac33314ff793864f6ca77dbc392f4f8,50.7.47.206,"Mozilla/5.0 (Windows NT 10.0; Win64; x64) AppleWebKit/537.36 (KHTML, like Gecko) Chrome/146.0.0.0 YaBrowser/26.4.0.0 Safari/537.36",desktop,Chrome,146.0.0.0,Windows,10.0,null,"ru,en;q=0.9",p_1781108603474_wyud,1440,960,false,18,female,4,3,1282,"<div style=""text-align:center""><img src=""ff_v4_028.png"" style=""max-width:90vw;max-height:72vh;display:block;margin:0 auto""><p style=""color:#fff;font-size:18px;margin-top:16px"">Было ли запомненное лицо в наборе?</p><div class=""keys"" style=""margin-top:12px""><div class=""key"">←<span>НЕ БЫЛО</span></div><div class=""key"">→<span>БЫЛО</span></div></div></div>",arrowright,true,ff_028,face_face,real,8,true,real_015.png,ff_v4_028.png,8,arrowright,1,false,false,true,118,,,,,
,,,,,html-keyboard-response,118,191969,0.0-118.0,1,1,2026-06-10 16:23:18,fac33314ff793864f6ca77dbc392f4f8,50.7.47.206,"Mozilla/5.0 (Windows NT 10.0; Win64; x64) AppleWebKit/537.36 (KHTML, like Gecko) Chrome/146.0.0.0 YaBrowser/26.4.0.0 Safari/537.36",desktop,Chrome,146.0.0.0,Windows,10.0,null,"ru,en;q=0.9",p_1781108603474_wyud,1440,960,false,18,female,4,3,null,"<p style=""color:#808080;font-size:1px"">.</p>",null,,,,,,,,,,,,,,,,,,,,
,,,,,html-keyboard-response,119,192478,0.0-119.0,1,1,2026-06-10 16:23:18,fac33314ff793864f6ca77dbc392f4f8,50.7.47.206,"Mozilla/5.0 (Windows NT 10.0; Win64; x64) AppleWebKit/537.36 (KHTML, like Gecko) Chrome/146.0.0.0 YaBrowser/26.4.0.0 Safari/537.36",desktop,Chrome,146.0.0.0,Windows,10.0,null,"ru,en;q=0.9",p_1781108603474_wyud,1440,960,false,18,female,4,3,null,"<p style=""font-size:60px;color:#fff;margin:0"">+</p>",null,,,,,,,,,,,,,,,,,,,,
,,,,,html-keyboard-response,120,193989,0.0-120.0,1,1,2026-06-10 16:23:18,fac33314ff793864f6ca77dbc392f4f8,50.7.47.206,"Mozilla/5.0 (Windows NT 10.0; Win64; x64) AppleWebKit/537.36 (KHTML, like Gecko) Chrome/146.0.0.0 YaBrowser/26.4.0.0 Safari/537.36",desktop,Chrome,146.0.0.0,Windows,10.0,null,"ru,en;q=0.9",p_1781108603474_wyud,1440,960,false,18,female,4,3,null,"<div style=""text-align:center""><p style=""color:#fff;font-size:18px;margin-bottom:12px"">Запомните это лицо</p><img src=""real_020.png"" style=""width:256px;height:256px;object-fit:contain;border:3px solid #fff;border-radius:4px;background:#808080""></div>",null,,,,,,,,,,,,,,,,,,,,
,,,,,html-keyboard-response,121,194500,0.0-121.0,1,1,2026-06-10 16:23:18,fac33314ff793864f6ca77dbc392f4f8,50.7.47.206,"Mozilla/5.0 (Windows NT 10.0; Win64; x64) AppleWebKit/537.36 (KHTML, like Gecko) Chrome/146.0.0.0 YaBrowser/26.4.0.0 Safari/537.36",desktop,Chrome,146.0.0.0,Windows,10.0,null,"ru,en;q=0.9",p_1781108603474_wyud,1440,960,false,18,female,4,3,null,"<p style=""color:#808080;font-size:1px"">.</p>",null,,,,,,,,,,,,,,,,,,,,
,,,,,html-keyboard-response,122,196202,0.0-122.0,1,1,2026-06-10 16:23:18,fac33314ff793864f6ca77dbc392f4f8,50.7.47.206,"Mozilla/5.0 (Windows NT 10.0; Win64; x64) AppleWebKit/537.36 (KHTML, like Gecko) Chrome/146.0.0.0 YaBrowser/26.4.0.0 Safari/537.36",desktop,Chrome,146.0.0.0,Windows,10.0,null,"ru,en;q=0.9",p_1781108603474_wyud,1440,960,false,18,female,4,3,1701,"<div style=""text-align:center""><img src=""ff_v4_030.png"" style=""max-width:90vw;max-height:72vh;display:block;margin:0 auto""><p style=""color:#fff;font-size:18px;margin-top:16px"">Было ли запомненное лицо в наборе?</p><div class=""keys"" style=""margin-top:12px""><div class=""key"">←<span>НЕ БЫЛО</span></div><div class=""key"">→<span>БЫЛО</span></div></div></div>",arrowright,true,ff_030,face_face,real,8,true,real_020.png,ff_v4_030.png,7,arrowright,1,false,false,true,123,,,,,
,,,,,html-keyboard-response,123,196704,0.0-123.0,1,1,2026-06-10 16:23:18,fac33314ff793864f6ca77dbc392f4f8,50.7.47.206,"Mozilla/5.0 (Windows NT 10.0; Win64; x64) AppleWebKit/537.36 (KHTML, like Gecko) Chrome/146.0.0.0 YaBrowser/26.4.0.0 Safari/537.36",desktop,Chrome,146.0.0.0,Windows,10.0,null,"ru,en;q=0.9",p_1781108603474_wyud,1440,960,false,18,female,4,3,null,"<p style=""color:#808080;font-size:1px"">.</p>",null,,,,,,,,,,,,,,,,,,,,
,,,,,html-keyboard-response,124,197208,0.0-124.0,1,1,2026-06-10 16:23:18,fac33314ff793864f6ca77dbc392f4f8,50.7.47.206,"Mozilla/5.0 (Windows NT 10.0; Win64; x64) AppleWebKit/537.36 (KHTML, like Gecko) Chrome/146.0.0.0 YaBrowser/26.4.0.0 Safari/537.36",desktop,Chrome,146.0.0.0,Windows,10.0,null,"ru,en;q=0.9",p_1781108603474_wyud,1440,960,false,18,female,4,3,null,"<p style=""font-size:60px;color:#fff;margin:0"">+</p>",null,,,,,,,,,,,,,,,,,,,,
,,,,,html-keyboard-response,125,198710,0.0-125.0,1,1,2026-06-10 16:23:18,fac33314ff793864f6ca77dbc392f4f8,50.7.47.206,"Mozilla/5.0 (Windows NT 10.0; Win64; x64) AppleWebKit/537.36 (KHTML, like Gecko) Chrome/146.0.0.0 YaBrowser/26.4.0.0 Safari/537.36",desktop,Chrome,146.0.0.0,Windows,10.0,null,"ru,en;q=0.9",p_1781108603474_wyud,1440,960,false,18,female,4,3,null,"<div style=""text-align:center""><p style=""color:#fff;font-size:18px;margin-bottom:12px"">Запомните это лицо</p><img src=""real_002.png"" style=""width:256px;height:256px;object-fit:contain;border:3px solid #fff;border-radius:4px;background:#808080""></div>",null,,,,,,,,,,,,,,,,,,,,
,,,,,html-keyboard-response,126,199220,0.0-126.0,1,1,2026-06-10 16:23:18,fac33314ff793864f6ca77dbc392f4f8,50.7.47.206,"Mozilla/5.0 (Windows NT 10.0; Win64; x64) AppleWebKit/537.36 (KHTML, like Gecko) Chrome/146.0.0.0 YaBrowser/26.4.0.0 Safari/537.36",desktop,Chrome,146.0.0.0,Windows,10.0,null,"ru,en;q=0.9",p_1781108603474_wyud,1440,960,false,18,female,4,3,null,"<p style=""color:#808080;font-size:1px"">.</p>",null,,,,,,,,,,,,,,,,,,,,
,,,,,html-keyboard-response,127,200586,0.0-127.0,1,1,2026-06-10 16:23:18,fac33314ff793864f6ca77dbc392f4f8,50.7.47.206,"Mozilla/5.0 (Windows NT 10.0; Win64; x64) AppleWebKit/537.36 (KHTML, like Gecko) Chrome/146.0.0.0 YaBrowser/26.4.0.0 Safari/537.36",desktop,Chrome,146.0.0.0,Windows,10.0,null,"ru,en;q=0.9",p_1781108603474_wyud,1440,960,false,18,female,4,3,1365,"<div style=""text-align:center""><img src=""ff_v4_010.png"" style=""max-width:90vw;max-height:72vh;display:block;margin:0 auto""><p style=""color:#fff;font-size:18px;margin-top:16px"">Было ли запомненное лицо в наборе?</p><div class=""keys"" style=""margin-top:12px""><div class=""key"">←<span>НЕ БЫЛО</span></div><div class=""key"">→<span>БЫЛО</span></div></div></div>",arrowleft,true,ff_010,face_face,real,4,false,real_002.png,ff_v4_010.png,,arrowleft,1,false,false,true,128,,,,,
,,,,,html-keyboard-response,128,201099,0.0-128.0,1,1,2026-06-10 16:23:18,fac33314ff793864f6ca77dbc392f4f8,50.7.47.206,"Mozilla/5.0 (Windows NT 10.0; Win64; x64) AppleWebKit/537.36 (KHTML, like Gecko) Chrome/146.0.0.0 YaBrowser/26.4.0.0 Safari/537.36",desktop,Chrome,146.0.0.0,Windows,10.0,null,"ru,en;q=0.9",p_1781108603474_wyud,1440,960,false,18,female,4,3,null,"<p style=""color:#808080;font-size:1px"">.</p>",null,,,,,,,,,,,,,,,,,,,,
,,,,,html-keyboard-response,129,201607,0.0-129.0,1,1,2026-06-10 16:23:18,fac33314ff793864f6ca77dbc392f4f8,50.7.47.206,"Mozilla/5.0 (Windows NT 10.0; Win64; x64) AppleWebKit/537.36 (KHTML, like Gecko) Chrome/146.0.0.0 YaBrowser/26.4.0.0 Safari/537.36",desktop,Chrome,146.0.0.0,Windows,10.0,null,"ru,en;q=0.9",p_1781108603474_wyud,1440,960,false,18,female,4,3,null,"<p style=""font-size:60px;color:#fff;margin:0"">+</p>",null,,,,,,,,,,,,,,,,,,,,
,,,,,html-keyboard-response,130,203113,0.0-130.0,1,1,2026-06-10 16:23:18,fac33314ff793864f6ca77dbc392f4f8,50.7.47.206,"Mozilla/5.0 (Windows NT 10.0; Win64; x64) AppleWebKit/537.36 (KHTML, like Gecko) Chrome/146.0.0.0 YaBrowser/26.4.0.0 Safari/537.36",desktop,Chrome,146.0.0.0,Windows,10.0,null,"ru,en;q=0.9",p_1781108603474_wyud,1440,960,false,18,female,4,3,null,"<div style=""text-align:center""><p style=""color:#fff;font-size:18px;margin-bottom:12px"">Запомните это лицо</p><img src=""real_003.png"" style=""width:256px;height:256px;object-fit:contain;border:3px solid #fff;border-radius:4px;background:#808080""></div>",null,,,,,,,,,,,,,,,,,,,,
,,,,,html-keyboard-response,131,203621,0.0-131.0,1,1,2026-06-10 16:23:18,fac33314ff793864f6ca77dbc392f4f8,50.7.47.206,"Mozilla/5.0 (Windows NT 10.0; Win64; x64) AppleWebKit/537.36 (KHTML, like Gecko) Chrome/146.0.0.0 YaBrowser/26.4.0.0 Safari/537.36",desktop,Chrome,146.0.0.0,Windows,10.0,null,"ru,en;q=0.9",p_1781108603474_wyud,1440,960,false,18,female,4,3,null,"<p style=""color:#808080;font-size:1px"">.</p>",null,,,,,,,,,,,,,,,,,,,,
,,,,,html-keyboard-response,132,204840,0.0-132.0,1,1,2026-06-10 16:23:18,fac33314ff793864f6ca77dbc392f4f8,50.7.47.206,"Mozilla/5.0 (Windows NT 10.0; Win64; x64) AppleWebKit/537.36 (KHTML, like Gecko) Chrome/146.0.0.0 YaBrowser/26.4.0.0 Safari/537.36",desktop,Chrome,146.0.0.0,Windows,10.0,null,"ru,en;q=0.9",p_1781108603474_wyud,1440,960,false,18,female,4,3,1217,"<div style=""text-align:center""><img src=""ff_v4_018.png"" style=""max-width:90vw;max-height:72vh;display:block;margin:0 auto""><p style=""color:#fff;font-size:18px;margin-top:16px"">Было ли запомненное лицо в наборе?</p><div class=""keys"" style=""margin-top:12px""><div class=""key"">←<span>НЕ БЫЛО</span></div><div class=""key"">→<span>БЫЛО</span></div></div></div>",arrowright,true,ff_018,face_face,real,4,true,real_003.png,ff_v4_018.png,2,arrowright,1,false,false,true,133,,,,,
,,,,,html-keyboard-response,133,205354,0.0-133.0,1,1,2026-06-10 16:23:18,fac33314ff793864f6ca77dbc392f4f8,50.7.47.206,"Mozilla/5.0 (Windows NT 10.0; Win64; x64) AppleWebKit/537.36 (KHTML, like Gecko) Chrome/146.0.0.0 YaBrowser/26.4.0.0 Safari/537.36",desktop,Chrome,146.0.0.0,Windows,10.0,null,"ru,en;q=0.9",p_1781108603474_wyud,1440,960,false,18,female,4,3,null,"<p style=""color:#808080;font-size:1px"">.</p>",null,,,,,,,,,,,,,,,,,,,,
,,,,,html-keyboard-response,134,205861,0.0-134.0,1,1,2026-06-10 16:23:18,fac33314ff793864f6ca77dbc392f4f8,50.7.47.206,"Mozilla/5.0 (Windows NT 10.0; Win64; x64) AppleWebKit/537.36 (KHTML, like Gecko) Chrome/146.0.0.0 YaBrowser/26.4.0.0 Safari/537.36",desktop,Chrome,146.0.0.0,Windows,10.0,null,"ru,en;q=0.9",p_1781108603474_wyud,1440,960,false,18,female,4,3,null,"<p style=""font-size:60px;color:#fff;margin:0"">+</p>",null,,,,,,,,,,,,,,,,,,,,
,,,,,html-keyboard-response,135,207366,0.0-135.0,1,1,2026-06-10 16:23:18,fac33314ff793864f6ca77dbc392f4f8,50.7.47.206,"Mozilla/5.0 (Windows NT 10.0; Win64; x64) AppleWebKit/537.36 (KHTML, like Gecko) Chrome/146.0.0.0 YaBrowser/26.4.0.0 Safari/537.36",desktop,Chrome,146.0.0.0,Windows,10.0,null,"ru,en;q=0.9",p_1781108603474_wyud,1440,960,false,18,female,4,3,null,"<div style=""text-align:center""><p style=""color:#fff;font-size:18px;margin-bottom:12px"">Запомните это лицо</p><img src=""ai_004.png"" style=""width:256px;height:256px;object-fit:contain;border:3px solid #fff;border-radius:4px;background:#808080""></div>",null,,,,,,,,,,,,,,,,,,,,
,,,,,html-keyboard-response,136,207871,0.0-136.0,1,1,2026-06-10 16:23:18,fac33314ff793864f6ca77dbc392f4f8,50.7.47.206,"Mozilla/5.0 (Windows NT 10.0; Win64; x64) AppleWebKit/537.36 (KHTML, like Gecko) Chrome/146.0.0.0 YaBrowser/26.4.0.0 Safari/537.36",desktop,Chrome,146.0.0.0,Windows,10.0,null,"ru,en;q=0.9",p_1781108603474_wyud,1440,960,false,18,female,4,3,null,"<p style=""color:#808080;font-size:1px"">.</p>",null,,,,,,,,,,,,,,,,,,,,
,,,,,html-keyboard-response,137,209238,0.0-137.0,1,1,2026-06-10 16:23:18,fac33314ff793864f6ca77dbc392f4f8,50.7.47.206,"Mozilla/5.0 (Windows NT 10.0; Win64; x64) AppleWebKit/537.36 (KHTML, like Gecko) Chrome/146.0.0.0 YaBrowser/26.4.0.0 Safari/537.36",desktop,Chrome,146.0.0.0,Windows,10.0,null,"ru,en;q=0.9",p_1781108603474_wyud,1440,960,false,18,female,4,3,1366,"<div style=""text-align:center""><img src=""ff_v4_016.png"" style=""max-width:90vw;max-height:72vh;display:block;margin:0 auto""><p style=""color:#fff;font-size:18px;margin-top:16px"">Было ли запомненное лицо в наборе?</p><div class=""keys"" style=""margin-top:12px""><div class=""key"">←<span>НЕ БЫЛО</span></div><div class=""key"">→<span>БЫЛО</span></div></div></div>",arrowright,true,ff_016,face_face,ai,4,true,ai_004.png,ff_v4_016.png,3,arrowright,1,false,false,true,138,,,,,
,,,,,html-keyboard-response,138,209743,0.0-138.0,1,1,2026-06-10 16:23:18,fac33314ff793864f6ca77dbc392f4f8,50.7.47.206,"Mozilla/5.0 (Windows NT 10.0; Win64; x64) AppleWebKit/537.36 (KHTML, like Gecko) Chrome/146.0.0.0 YaBrowser/26.4.0.0 Safari/537.36",desktop,Chrome,146.0.0.0,Windows,10.0,null,"ru,en;q=0.9",p_1781108603474_wyud,1440,960,false,18,female,4,3,null,"<p style=""color:#808080;font-size:1px"">.</p>",null,,,,,,,,,,,,,,,,,,,,
,,,,,html-keyboard-response,139,210251,0.0-139.0,1,1,2026-06-10 16:23:18,fac33314ff793864f6ca77dbc392f4f8,50.7.47.206,"Mozilla/5.0 (Windows NT 10.0; Win64; x64) AppleWebKit/537.36 (KHTML, like Gecko) Chrome/146.0.0.0 YaBrowser/26.4.0.0 Safari/537.36",desktop,Chrome,146.0.0.0,Windows,10.0,null,"ru,en;q=0.9",p_1781108603474_wyud,1440,960,false,18,female,4,3,null,"<p style=""font-size:60px;color:#fff;margin:0"">+</p>",null,,,,,,,,,,,,,,,,,,,,
,,,,,html-keyboard-response,140,211758,0.0-140.0,1,1,2026-06-10 16:23:18,fac33314ff793864f6ca77dbc392f4f8,50.7.47.206,"Mozilla/5.0 (Windows NT 10.0; Win64; x64) AppleWebKit/537.36 (KHTML, like Gecko) Chrome/146.0.0.0 YaBrowser/26.4.0.0 Safari/537.36",desktop,Chrome,146.0.0.0,Windows,10.0,null,"ru,en;q=0.9",p_1781108603474_wyud,1440,960,false,18,female,4,3,null,"<div style=""text-align:center""><p style=""color:#fff;font-size:18px;margin-bottom:12px"">Запомните это лицо</p><img src=""real_003.png"" style=""width:256px;height:256px;object-fit:contain;border:3px solid #fff;border-radius:4px;background:#808080""></div>",null,,,,,,,,,,,,,,,,,,,,
,,,,,html-keyboard-response,141,212267,0.0-141.0,1,1,2026-06-10 16:23:18,fac33314ff793864f6ca77dbc392f4f8,50.7.47.206,"Mozilla/5.0 (Windows NT 10.0; Win64; x64) AppleWebKit/537.36 (KHTML, like Gecko) Chrome/146.0.0.0 YaBrowser/26.4.0.0 Safari/537.36",desktop,Chrome,146.0.0.0,Windows,10.0,null,"ru,en;q=0.9",p_1781108603474_wyud,1440,960,false,18,female,4,3,null,"<p style=""color:#808080;font-size:1px"">.</p>",null,,,,,,,,,,,,,,,,,,,,
,,,,,html-keyboard-response,142,215242,0.0-142.0,1,1,2026-06-10 16:23:18,fac33314ff793864f6ca77dbc392f4f8,50.7.47.206,"Mozilla/5.0 (Windows NT 10.0; Win64; x64) AppleWebKit/537.36 (KHTML, like Gecko) Chrome/146.0.0.0 YaBrowser/26.4.0.0 Safari/537.36",desktop,Chrome,146.0.0.0,Windows,10.0,null,"ru,en;q=0.9",p_1781108603474_wyud,1440,960,false,18,female,4,3,2973,"<div style=""text-align:center""><img src=""ff_v4_023.png"" style=""max-width:90vw;max-height:72vh;display:block;margin:0 auto""><p style=""color:#fff;font-size:18px;margin-top:16px"">Было ли запомненное лицо в наборе?</p><div class=""keys"" style=""margin-top:12px""><div class=""key"">←<span>НЕ БЫЛО</span></div><div class=""key"">→<span>БЫЛО</span></div></div></div>",arrowleft,true,ff_023,face_face,real,8,false,real_003.png,ff_v4_023.png,,arrowleft,1,false,false,true,143,,,,,
,,,,,html-keyboard-response,143,215755,0.0-143.0,1,1,2026-06-10 16:23:18,fac33314ff793864f6ca77dbc392f4f8,50.7.47.206,"Mozilla/5.0 (Windows NT 10.0; Win64; x64) AppleWebKit/537.36 (KHTML, like Gecko) Chrome/146.0.0.0 YaBrowser/26.4.0.0 Safari/537.36",desktop,Chrome,146.0.0.0,Windows,10.0,null,"ru,en;q=0.9",p_1781108603474_wyud,1440,960,false,18,female,4,3,null,"<p style=""color:#808080;font-size:1px"">.</p>",null,,,,,,,,,,,,,,,,,,,,
,,,,,html-keyboard-response,144,216260,0.0-144.0,1,1,2026-06-10 16:23:18,fac33314ff793864f6ca77dbc392f4f8,50.7.47.206,"Mozilla/5.0 (Windows NT 10.0; Win64; x64) AppleWebKit/537.36 (KHTML, like Gecko) Chrome/146.0.0.0 YaBrowser/26.4.0.0 Safari/537.36",desktop,Chrome,146.0.0.0,Windows,10.0,null,"ru,en;q=0.9",p_1781108603474_wyud,1440,960,false,18,female,4,3,null,"<p style=""font-size:60px;color:#fff;margin:0"">+</p>",null,,,,,,,,,,,,,,,,,,,,
,,,,,html-keyboard-response,145,217769,0.0-145.0,1,1,2026-06-10 16:23:18,fac33314ff793864f6ca77dbc392f4f8,50.7.47.206,"Mozilla/5.0 (Windows NT 10.0; Win64; x64) AppleWebKit/537.36 (KHTML, like Gecko) Chrome/146.0.0.0 YaBrowser/26.4.0.0 Safari/537.36",desktop,Chrome,146.0.0.0,Windows,10.0,null,"ru,en;q=0.9",p_1781108603474_wyud,1440,960,false,18,female,4,3,null,"<div style=""text-align:center""><p style=""color:#fff;font-size:18px;margin-bottom:12px"">Запомните это лицо</p><img src=""real_002.png"" style=""width:256px;height:256px;object-fit:contain;border:3px solid #fff;border-radius:4px;background:#808080""></div>",null,,,,,,,,,,,,,,,,,,,,
,,,,,html-keyboard-response,146,218278,0.0-146.0,1,1,2026-06-10 16:23:18,fac33314ff793864f6ca77dbc392f4f8,50.7.47.206,"Mozilla/5.0 (Windows NT 10.0; Win64; x64) AppleWebKit/537.36 (KHTML, like Gecko) Chrome/146.0.0.0 YaBrowser/26.4.0.0 Safari/537.36",desktop,Chrome,146.0.0.0,Windows,10.0,null,"ru,en;q=0.9",p_1781108603474_wyud,1440,960,false,18,female,4,3,null,"<p style=""color:#808080;font-size:1px"">.</p>",null,,,,,,,,,,,,,,,,,,,,
,,,,,html-keyboard-response,147,221430,0.0-147.0,1,1,2026-06-10 16:23:18,fac33314ff793864f6ca77dbc392f4f8,50.7.47.206,"Mozilla/5.0 (Windows NT 10.0; Win64; x64) AppleWebKit/537.36 (KHTML, like Gecko) Chrome/146.0.0.0 YaBrowser/26.4.0.0 Safari/537.36",desktop,Chrome,146.0.0.0,Windows,10.0,null,"ru,en;q=0.9",p_1781108603474_wyud,1440,960,false,18,female,4,3,3152,"<div style=""text-align:center""><img src=""ff_v4_008.png"" style=""max-width:90vw;max-height:72vh;display:block;margin:0 auto""><p style=""color:#fff;font-size:18px;margin-top:16px"">Было ли запомненное лицо в наборе?</p><div class=""keys"" style=""margin-top:12px""><div class=""key"">←<span>НЕ БЫЛО</span></div><div class=""key"">→<span>БЫЛО</span></div></div></div>",arrowleft,true,ff_008,face_face,real,8,false,real_002.png,ff_v4_008.png,,arrowleft,1,false,false,true,148,,,,,
,,,,,html-keyboard-response,148,221932,0.0-148.0,1,1,2026-06-10 16:23:18,fac33314ff793864f6ca77dbc392f4f8,50.7.47.206,"Mozilla/5.0 (Windows NT 10.0; Win64; x64) AppleWebKit/537.36 (KHTML, like Gecko) Chrome/146.0.0.0 YaBrowser/26.4.0.0 Safari/537.36",desktop,Chrome,146.0.0.0,Windows,10.0,null,"ru,en;q=0.9",p_1781108603474_wyud,1440,960,false,18,female,4,3,null,"<p style=""color:#808080;font-size:1px"">.</p>",null,,,,,,,,,,,,,,,,,,,,
,,,,,html-keyboard-response,149,222443,0.0-149.0,1,1,2026-06-10 16:23:18,fac33314ff793864f6ca77dbc392f4f8,50.7.47.206,"Mozilla/5.0 (Windows NT 10.0; Win64; x64) AppleWebKit/537.36 (KHTML, like Gecko) Chrome/146.0.0.0 YaBrowser/26.4.0.0 Safari/537.36",desktop,Chrome,146.0.0.0,Windows,10.0,null,"ru,en;q=0.9",p_1781108603474_wyud,1440,960,false,18,female,4,3,null,"<p style=""font-size:60px;color:#fff;margin:0"">+</p>",null,,,,,,,,,,,,,,,,,,,,
,,,,,html-keyboard-response,150,223945,0.0-150.0,1,1,2026-06-10 16:23:18,fac33314ff793864f6ca77dbc392f4f8,50.7.47.206,"Mozilla/5.0 (Windows NT 10.0; Win64; x64) AppleWebKit/537.36 (KHTML, like Gecko) Chrome/146.0.0.0 YaBrowser/26.4.0.0 Safari/537.36",desktop,Chrome,146.0.0.0,Windows,10.0,null,"ru,en;q=0.9",p_1781108603474_wyud,1440,960,false,18,female,4,3,null,"<div style=""text-align:center""><p style=""color:#fff;font-size:18px;margin-bottom:12px"">Запомните это лицо</p><img src=""real_039.png"" style=""width:256px;height:256px;object-fit:contain;border:3px solid #fff;border-radius:4px;background:#808080""></div>",null,,,,,,,,,,,,,,,,,,,,
,,,,,html-keyboard-response,151,224456,0.0-151.0,1,1,2026-06-10 16:23:18,fac33314ff793864f6ca77dbc392f4f8,50.7.47.206,"Mozilla/5.0 (Windows NT 10.0; Win64; x64) AppleWebKit/537.36 (KHTML, like Gecko) Chrome/146.0.0.0 YaBrowser/26.4.0.0 Safari/537.36",desktop,Chrome,146.0.0.0,Windows,10.0,null,"ru,en;q=0.9",p_1781108603474_wyud,1440,960,false,18,female,4,3,null,"<p style=""color:#808080;font-size:1px"">.</p>",null,,,,,,,,,,,,,,,,,,,,
,,,,,html-keyboard-response,152,226164,0.0-152.0,1,1,2026-06-10 16:23:18,fac33314ff793864f6ca77dbc392f4f8,50.7.47.206,"Mozilla/5.0 (Windows NT 10.0; Win64; x64) AppleWebKit/537.36 (KHTML, like Gecko) Chrome/146.0.0.0 YaBrowser/26.4.0.0 Safari/537.36",desktop,Chrome,146.0.0.0,Windows,10.0,null,"ru,en;q=0.9",p_1781108603474_wyud,1440,960,false,18,female,4,3,1707,"<div style=""text-align:center""><img src=""ff_v4_012.png"" style=""max-width:90vw;max-height:72vh;display:block;margin:0 auto""><p style=""color:#fff;font-size:18px;margin-top:16px"">Было ли запомненное лицо в наборе?</p><div class=""keys"" style=""margin-top:12px""><div class=""key"">←<span>НЕ БЫЛО</span></div><div class=""key"">→<span>БЫЛО</span></div></div></div>",arrowright,true,ff_012,face_face,real,4,true,real_039.png,ff_v4_012.png,1,arrowright,1,false,false,true,153,,,,,
,,,,,html-keyboard-response,153,226674,0.0-153.0,1,1,2026-06-10 16:23:18,fac33314ff793864f6ca77dbc392f4f8,50.7.47.206,"Mozilla/5.0 (Windows NT 10.0; Win64; x64) AppleWebKit/537.36 (KHTML, like Gecko) Chrome/146.0.0.0 YaBrowser/26.4.0.0 Safari/537.36",desktop,Chrome,146.0.0.0,Windows,10.0,null,"ru,en;q=0.9",p_1781108603474_wyud,1440,960,false,18,female,4,3,null,"<p style=""color:#808080;font-size:1px"">.</p>",null,,,,,,,,,,,,,,,,,,,,
,,,,,html-keyboard-response,154,227183,0.0-154.0,1,1,2026-06-10 16:23:18,fac33314ff793864f6ca77dbc392f4f8,50.7.47.206,"Mozilla/5.0 (Windows NT 10.0; Win64; x64) AppleWebKit/537.36 (KHTML, like Gecko) Chrome/146.0.0.0 YaBrowser/26.4.0.0 Safari/537.36",desktop,Chrome,146.0.0.0,Windows,10.0,null,"ru,en;q=0.9",p_1781108603474_wyud,1440,960,false,18,female,4,3,null,"<p style=""font-size:60px;color:#fff;margin:0"">+</p>",null,,,,,,,,,,,,,,,,,,,,
,,,,,html-keyboard-response,155,228693,0.0-155.0,1,1,2026-06-10 16:23:18,fac33314ff793864f6ca77dbc392f4f8,50.7.47.206,"Mozilla/5.0 (Windows NT 10.0; Win64; x64) AppleWebKit/537.36 (KHTML, like Gecko) Chrome/146.0.0.0 YaBrowser/26.4.0.0 Safari/537.36",desktop,Chrome,146.0.0.0,Windows,10.0,null,"ru,en;q=0.9",p_1781108603474_wyud,1440,960,false,18,female,4,3,null,"<div style=""text-align:center""><p style=""color:#fff;font-size:18px;margin-bottom:12px"">Запомните это лицо</p><img src=""real_039.png"" style=""width:256px;height:256px;object-fit:contain;border:3px solid #fff;border-radius:4px;background:#808080""></div>",null,,,,,,,,,,,,,,,,,,,,
,,,,,html-keyboard-response,156,229203,0.0-156.0,1,1,2026-06-10 16:23:18,fac33314ff793864f6ca77dbc392f4f8,50.7.47.206,"Mozilla/5.0 (Windows NT 10.0; Win64; x64) AppleWebKit/537.36 (KHTML, like Gecko) Chrome/146.0.0.0 YaBrowser/26.4.0.0 Safari/537.36",desktop,Chrome,146.0.0.0,Windows,10.0,null,"ru,en;q=0.9",p_1781108603474_wyud,1440,960,false,18,female,4,3,null,"<p style=""color:#808080;font-size:1px"">.</p>",null,,,,,,,,,,,,,,,,,,,,
,,,,,html-keyboard-response,157,231368,0.0-157.0,1,1,2026-06-10 16:23:18,fac33314ff793864f6ca77dbc392f4f8,50.7.47.206,"Mozilla/5.0 (Windows NT 10.0; Win64; x64) AppleWebKit/537.36 (KHTML, like Gecko) Chrome/146.0.0.0 YaBrowser/26.4.0.0 Safari/537.36",desktop,Chrome,146.0.0.0,Windows,10.0,null,"ru,en;q=0.9",p_1781108603474_wyud,1440,960,false,18,female,4,3,2164,"<div style=""text-align:center""><img src=""ff_v4_009.png"" style=""max-width:90vw;max-height:72vh;display:block;margin:0 auto""><p style=""color:#fff;font-size:18px;margin-top:16px"">Было ли запомненное лицо в наборе?</p><div class=""keys"" style=""margin-top:12px""><div class=""key"">←<span>НЕ БЫЛО</span></div><div class=""key"">→<span>БЫЛО</span></div></div></div>",arrowleft,true,ff_009,face_face,real,8,false,real_039.png,ff_v4_009.png,,arrowleft,1,false,false,true,158,,,,,
,,,,,html-keyboard-response,158,231877,0.0-158.0,1,1,2026-06-10 16:23:18,fac33314ff793864f6ca77dbc392f4f8,50.7.47.206,"Mozilla/5.0 (Windows NT 10.0; Win64; x64) AppleWebKit/537.36 (KHTML, like Gecko) Chrome/146.0.0.0 YaBrowser/26.4.0.0 Safari/537.36",desktop,Chrome,146.0.0.0,Windows,10.0,null,"ru,en;q=0.9",p_1781108603474_wyud,1440,960,false,18,female,4,3,null,"<p style=""color:#808080;font-size:1px"">.</p>",null,,,,,,,,,,,,,,,,,,,,
,,,,,html-keyboard-response,159,232385,0.0-159.0,1,1,2026-06-10 16:23:18,fac33314ff793864f6ca77dbc392f4f8,50.7.47.206,"Mozilla/5.0 (Windows NT 10.0; Win64; x64) AppleWebKit/537.36 (KHTML, like Gecko) Chrome/146.0.0.0 YaBrowser/26.4.0.0 Safari/537.36",desktop,Chrome,146.0.0.0,Windows,10.0,null,"ru,en;q=0.9",p_1781108603474_wyud,1440,960,false,18,female,4,3,null,"<p style=""font-size:60px;color:#fff;margin:0"">+</p>",null,,,,,,,,,,,,,,,,,,,,
,,,,,html-keyboard-response,160,233888,0.0-160.0,1,1,2026-06-10 16:23:18,fac33314ff793864f6ca77dbc392f4f8,50.7.47.206,"Mozilla/5.0 (Windows NT 10.0; Win64; x64) AppleWebKit/537.36 (KHTML, like Gecko) Chrome/146.0.0.0 YaBrowser/26.4.0.0 Safari/537.36",desktop,Chrome,146.0.0.0,Windows,10.0,null,"ru,en;q=0.9",p_1781108603474_wyud,1440,960,false,18,female,4,3,null,"<div style=""text-align:center""><p style=""color:#fff;font-size:18px;margin-bottom:12px"">Запомните это лицо</p><img src=""real_015.png"" style=""width:256px;height:256px;object-fit:contain;border:3px solid #fff;border-radius:4px;background:#808080""></div>",null,,,,,,,,,,,,,,,,,,,,
,,,,,html-keyboard-response,161,234394,0.0-161.0,1,1,2026-06-10 16:23:18,fac33314ff793864f6ca77dbc392f4f8,50.7.47.206,"Mozilla/5.0 (Windows NT 10.0; Win64; x64) AppleWebKit/537.36 (KHTML, like Gecko) Chrome/146.0.0.0 YaBrowser/26.4.0.0 Safari/537.36",desktop,Chrome,146.0.0.0,Windows,10.0,null,"ru,en;q=0.9",p_1781108603474_wyud,1440,960,false,18,female,4,3,null,"<p style=""color:#808080;font-size:1px"">.</p>",null,,,,,,,,,,,,,,,,,,,,
,,,,,html-keyboard-response,162,235170,0.0-162.0,1,1,2026-06-10 16:23:18,fac33314ff793864f6ca77dbc392f4f8,50.7.47.206,"Mozilla/5.0 (Windows NT 10.0; Win64; x64) AppleWebKit/537.36 (KHTML, like Gecko) Chrome/146.0.0.0 YaBrowser/26.4.0.0 Safari/537.36",desktop,Chrome,146.0.0.0,Windows,10.0,null,"ru,en;q=0.9",p_1781108603474_wyud,1440,960,false,18,female,4,3,775,"<div style=""text-align:center""><img src=""ff_v4_004.png"" style=""max-width:90vw;max-height:72vh;display:block;margin:0 auto""><p style=""color:#fff;font-size:18px;margin-top:16px"">Было ли запомненное лицо в наборе?</p><div class=""keys"" style=""margin-top:12px""><div class=""key"">←<span>НЕ БЫЛО</span></div><div class=""key"">→<span>БЫЛО</span></div></div></div>",arrowright,true,ff_004,face_face,real,4,true,real_015.png,ff_v4_004.png,4,arrowright,1,false,false,true,163,,,,,
,,,,,html-keyboard-response,163,235678,0.0-163.0,1,1,2026-06-10 16:23:18,fac33314ff793864f6ca77dbc392f4f8,50.7.47.206,"Mozilla/5.0 (Windows NT 10.0; Win64; x64) AppleWebKit/537.36 (KHTML, like Gecko) Chrome/146.0.0.0 YaBrowser/26.4.0.0 Safari/537.36",desktop,Chrome,146.0.0.0,Windows,10.0,null,"ru,en;q=0.9",p_1781108603474_wyud,1440,960,false,18,female,4,3,null,"<p style=""color:#808080;font-size:1px"">.</p>",null,,,,,,,,,,,,,,,,,,,,
,,,,,html-keyboard-response,164,236183,0.0-164.0,1,1,2026-06-10 16:23:18,fac33314ff793864f6ca77dbc392f4f8,50.7.47.206,"Mozilla/5.0 (Windows NT 10.0; Win64; x64) AppleWebKit/537.36 (KHTML, like Gecko) Chrome/146.0.0.0 YaBrowser/26.4.0.0 Safari/537.36",desktop,Chrome,146.0.0.0,Windows,10.0,null,"ru,en;q=0.9",p_1781108603474_wyud,1440,960,false,18,female,4,3,null,"<p style=""font-size:60px;color:#fff;margin:0"">+</p>",null,,,,,,,,,,,,,,,,,,,,
,,,,,html-keyboard-response,165,237688,0.0-165.0,1,1,2026-06-10 16:23:18,fac33314ff793864f6ca77dbc392f4f8,50.7.47.206,"Mozilla/5.0 (Windows NT 10.0; Win64; x64) AppleWebKit/537.36 (KHTML, like Gecko) Chrome/146.0.0.0 YaBrowser/26.4.0.0 Safari/537.36",desktop,Chrome,146.0.0.0,Windows,10.0,null,"ru,en;q=0.9",p_1781108603474_wyud,1440,960,false,18,female,4,3,null,"<div style=""text-align:center""><p style=""color:#fff;font-size:18px;margin-bottom:12px"">Запомните это лицо</p><img src=""ai_005.png"" style=""width:256px;height:256px;object-fit:contain;border:3px solid #fff;border-radius:4px;background:#808080""></div>",null,,,,,,,,,,,,,,,,,,,,
,,,,,html-keyboard-response,166,238200,0.0-166.0,1,1,2026-06-10 16:23:18,fac33314ff793864f6ca77dbc392f4f8,50.7.47.206,"Mozilla/5.0 (Windows NT 10.0; Win64; x64) AppleWebKit/537.36 (KHTML, like Gecko) Chrome/146.0.0.0 YaBrowser/26.4.0.0 Safari/537.36",desktop,Chrome,146.0.0.0,Windows,10.0,null,"ru,en;q=0.9",p_1781108603474_wyud,1440,960,false,18,female,4,3,null,"<p style=""color:#808080;font-size:1px"">.</p>",null,,,,,,,,,,,,,,,,,,,,
,,,,,html-keyboard-response,167,239113,0.0-167.0,1,1,2026-06-10 16:23:18,fac33314ff793864f6ca77dbc392f4f8,50.7.47.206,"Mozilla/5.0 (Windows NT 10.0; Win64; x64) AppleWebKit/537.36 (KHTML, like Gecko) Chrome/146.0.0.0 YaBrowser/26.4.0.0 Safari/537.36",desktop,Chrome,146.0.0.0,Windows,10.0,null,"ru,en;q=0.9",p_1781108603474_wyud,1440,960,false,18,female,4,3,912,"<div style=""text-align:center""><img src=""ff_v4_026.png"" style=""max-width:90vw;max-height:72vh;display:block;margin:0 auto""><p style=""color:#fff;font-size:18px;margin-top:16px"">Было ли запомненное лицо в наборе?</p><div class=""keys"" style=""margin-top:12px""><div class=""key"">←<span>НЕ БЫЛО</span></div><div class=""key"">→<span>БЫЛО</span></div></div></div>",arrowright,true,ff_026,face_face,ai,4,true,ai_005.png,ff_v4_026.png,4,arrowright,1,false,false,true,168,,,,,
,,,,,html-keyboard-response,168,239624,0.0-168.0,1,1,2026-06-10 16:23:18,fac33314ff793864f6ca77dbc392f4f8,50.7.47.206,"Mozilla/5.0 (Windows NT 10.0; Win64; x64) AppleWebKit/537.36 (KHTML, like Gecko) Chrome/146.0.0.0 YaBrowser/26.4.0.0 Safari/537.36",desktop,Chrome,146.0.0.0,Windows,10.0,null,"ru,en;q=0.9",p_1781108603474_wyud,1440,960,false,18,female,4,3,null,"<p style=""color:#808080;font-size:1px"">.</p>",null,,,,,,,,,,,,,,,,,,,,
,,,,,html-keyboard-response,169,240129,0.0-169.0,1,1,2026-06-10 16:23:18,fac33314ff793864f6ca77dbc392f4f8,50.7.47.206,"Mozilla/5.0 (Windows NT 10.0; Win64; x64) AppleWebKit/537.36 (KHTML, like Gecko) Chrome/146.0.0.0 YaBrowser/26.4.0.0 Safari/537.36",desktop,Chrome,146.0.0.0,Windows,10.0,null,"ru,en;q=0.9",p_1781108603474_wyud,1440,960,false,18,female,4,3,null,"<p style=""font-size:60px;color:#fff;margin:0"">+</p>",null,,,,,,,,,,,,,,,,,,,,
,,,,,html-keyboard-response,170,241630,0.0-170.0,1,1,2026-06-10 16:23:18,fac33314ff793864f6ca77dbc392f4f8,50.7.47.206,"Mozilla/5.0 (Windows NT 10.0; Win64; x64) AppleWebKit/537.36 (KHTML, like Gecko) Chrome/146.0.0.0 YaBrowser/26.4.0.0 Safari/537.36",desktop,Chrome,146.0.0.0,Windows,10.0,null,"ru,en;q=0.9",p_1781108603474_wyud,1440,960,false,18,female,4,3,null,"<div style=""text-align:center""><p style=""color:#fff;font-size:18px;margin-bottom:12px"">Запомните это лицо</p><img src=""ai_007.png"" style=""width:256px;height:256px;object-fit:contain;border:3px solid #fff;border-radius:4px;background:#808080""></div>",null,,,,,,,,,,,,,,,,,,,,
,,,,,html-keyboard-response,171,242139,0.0-171.0,1,1,2026-06-10 16:23:18,fac33314ff793864f6ca77dbc392f4f8,50.7.47.206,"Mozilla/5.0 (Windows NT 10.0; Win64; x64) AppleWebKit/537.36 (KHTML, like Gecko) Chrome/146.0.0.0 YaBrowser/26.4.0.0 Safari/537.36",desktop,Chrome,146.0.0.0,Windows,10.0,null,"ru,en;q=0.9",p_1781108603474_wyud,1440,960,false,18,female,4,3,null,"<p style=""color:#808080;font-size:1px"">.</p>",null,,,,,,,,,,,,,,,,,,,,
,,,,,html-keyboard-response,172,245548,0.0-172.0,1,1,2026-06-10 16:23:18,fac33314ff793864f6ca77dbc392f4f8,50.7.47.206,"Mozilla/5.0 (Windows NT 10.0; Win64; x64) AppleWebKit/537.36 (KHTML, like Gecko) Chrome/146.0.0.0 YaBrowser/26.4.0.0 Safari/537.36",desktop,Chrome,146.0.0.0,Windows,10.0,null,"ru,en;q=0.9",p_1781108603474_wyud,1440,960,false,18,female,4,3,3408,"<div style=""text-align:center""><img src=""ff_v4_002.png"" style=""max-width:90vw;max-height:72vh;display:block;margin:0 auto""><p style=""color:#fff;font-size:18px;margin-top:16px"">Было ли запомненное лицо в наборе?</p><div class=""keys"" style=""margin-top:12px""><div class=""key"">←<span>НЕ БЫЛО</span></div><div class=""key"">→<span>БЫЛО</span></div></div></div>",arrowleft,true,ff_002,face_face,ai,8,false,ai_007.png,ff_v4_002.png,,arrowleft,1,false,false,true,173,,,,,
,,,,,html-keyboard-response,173,246052,0.0-173.0,1,1,2026-06-10 16:23:18,fac33314ff793864f6ca77dbc392f4f8,50.7.47.206,"Mozilla/5.0 (Windows NT 10.0; Win64; x64) AppleWebKit/537.36 (KHTML, like Gecko) Chrome/146.0.0.0 YaBrowser/26.4.0.0 Safari/537.36",desktop,Chrome,146.0.0.0,Windows,10.0,null,"ru,en;q=0.9",p_1781108603474_wyud,1440,960,false,18,female,4,3,null,"<p style=""color:#808080;font-size:1px"">.</p>",null,,,,,,,,,,,,,,,,,,,,
,,,,,html-keyboard-response,174,246561,0.0-174.0,1,1,2026-06-10 16:23:18,fac33314ff793864f6ca77dbc392f4f8,50.7.47.206,"Mozilla/5.0 (Windows NT 10.0; Win64; x64) AppleWebKit/537.36 (KHTML, like Gecko) Chrome/146.0.0.0 YaBrowser/26.4.0.0 Safari/537.36",desktop,Chrome,146.0.0.0,Windows,10.0,null,"ru,en;q=0.9",p_1781108603474_wyud,1440,960,false,18,female,4,3,null,"<p style=""font-size:60px;color:#fff;margin:0"">+</p>",null,,,,,,,,,,,,,,,,,,,,
,,,,,html-keyboard-response,175,248069,0.0-175.0,1,1,2026-06-10 16:23:18,fac33314ff793864f6ca77dbc392f4f8,50.7.47.206,"Mozilla/5.0 (Windows NT 10.0; Win64; x64) AppleWebKit/537.36 (KHTML, like Gecko) Chrome/146.0.0.0 YaBrowser/26.4.0.0 Safari/537.36",desktop,Chrome,146.0.0.0,Windows,10.0,null,"ru,en;q=0.9",p_1781108603474_wyud,1440,960,false,18,female,4,3,null,"<div style=""text-align:center""><p style=""color:#fff;font-size:18px;margin-bottom:12px"">Запомните это лицо</p><img src=""real_033.png"" style=""width:256px;height:256px;object-fit:contain;border:3px solid #fff;border-radius:4px;background:#808080""></div>",null,,,,,,,,,,,,,,,,,,,,
,,,,,html-keyboard-response,176,248574,0.0-176.0,1,1,2026-06-10 16:23:18,fac33314ff793864f6ca77dbc392f4f8,50.7.47.206,"Mozilla/5.0 (Windows NT 10.0; Win64; x64) AppleWebKit/537.36 (KHTML, like Gecko) Chrome/146.0.0.0 YaBrowser/26.4.0.0 Safari/537.36",desktop,Chrome,146.0.0.0,Windows,10.0,null,"ru,en;q=0.9",p_1781108603474_wyud,1440,960,false,18,female,4,3,null,"<p style=""color:#808080;font-size:1px"">.</p>",null,,,,,,,,,,,,,,,,,,,,
