success,timeout,failed_images,failed_audio,failed_video,trial_type,trial_index,time_elapsed,internal_node_id,run_id,condition,recorded_at,source_code_version,ip,user_agent,device,browser,browser_version,platform,platform_version,referer,accept_language,participant_id,screen_width,screen_height,is_mobile,age,gender,ai_use_frequency,ai_detection_experience,rt,stimulus,response,save_trial,trial_id,block,target_origin,set_size,target_present,cue_image,composite_image,target_position,correct_key,repetition,is_practice,no_response,correct,trial_index_global,true_origin,filename,realism_rating,classification_response,classification_correct
true,false,[],[],[],preload,0,2156,0.0-0.0,24,1,2026-06-10 13:01:04,fac33314ff793864f6ca77dbc392f4f8,109.122.201.136,"Mozilla/5.0 (Macintosh; Intel Mac OS X 10_15_7) AppleWebKit/537.36 (KHTML, like Gecko) Chrome/148.0.0.0 Safari/537.36",desktop,Chrome,148.0.0.0,OS X,10_15_7,null,"en-US,en;q=0.9,ru-RU;q=0.8,ru;q=0.7",p_1781096465926_0odu,1470,956,false,19,male,4,0,,,,,,,,,,,,,,,,,,,,,,,
,,,,,html-button-response,1,6076,0.0-1.0,24,1,2026-06-10 13:01:04,fac33314ff793864f6ca77dbc392f4f8,109.122.201.136,"Mozilla/5.0 (Macintosh; Intel Mac OS X 10_15_7) AppleWebKit/537.36 (KHTML, like Gecko) Chrome/148.0.0.0 Safari/537.36",desktop,Chrome,148.0.0.0,OS X,10_15_7,null,"en-US,en;q=0.9,ru-RU;q=0.8,ru;q=0.7",p_1781096465926_0odu,1470,956,false,19,male,4,0,3918,"<div class=""box""><h2>Информация об исследовании</h2><p>Вы приглашены принять участие в научном исследовании, посвящённом особенностям зрительного восприятия.</p><p>Участие <strong>анонимно и добровольно</strong>. Вы можете прекратить в любой момент.</p><p>Эксперимент займёт около <strong>10–15 минут</strong>.</p><p>Данные используются исключительно в учебно-научных целях (курсовая работа, НИУ ВШЭ).</p></div>",0,,,,,,,,,,,,,,,,,,,,
,,,,,html-button-response,2,13442,0.0-2.0,24,1,2026-06-10 13:01:04,fac33314ff793864f6ca77dbc392f4f8,109.122.201.136,"Mozilla/5.0 (Macintosh; Intel Mac OS X 10_15_7) AppleWebKit/537.36 (KHTML, like Gecko) Chrome/148.0.0.0 Safari/537.36",desktop,Chrome,148.0.0.0,OS X,10_15_7,null,"en-US,en;q=0.9,ru-RU;q=0.8,ru;q=0.7",p_1781096465926_0odu,1470,956,false,19,male,4,0,7364,"<div class=""box""><h2>Перед началом</h2><ul><li>Вы за <strong>компьютером или ноутбуком</strong></li><li>Клавиши <strong>←</strong> и <strong>→</strong> доступны</li><li>Браузер развёрнут <strong>на весь экран</strong> (F11)</li><li>Экран на расстоянии <strong>вытянутой руки</strong></li><li>Есть <strong>10–15 минут</strong> в тишине без отвлечений</li></ul></div>",0,,,,,,,,,,,,,,,,,,,,
,,,,,survey-html-form,3,34760,0.0-3.0,24,1,2026-06-10 13:01:04,fac33314ff793864f6ca77dbc392f4f8,109.122.201.136,"Mozilla/5.0 (Macintosh; Intel Mac OS X 10_15_7) AppleWebKit/537.36 (KHTML, like Gecko) Chrome/148.0.0.0 Safari/537.36",desktop,Chrome,148.0.0.0,OS X,10_15_7,null,"en-US,en;q=0.9,ru-RU;q=0.8,ru;q=0.7",p_1781096465926_0odu,1470,956,false,19,male,4,0,21315,,"{""age"":""19"",""gender"":""male"",""device"":""desktop"",""ai_use_frequency"":""4"",""ai_detection_experience"":""0""}",,,,,,,,,,,,,,,,,,,,
,,,,,html-button-response,4,71524,0.0-4.0,24,1,2026-06-10 13:01:04,fac33314ff793864f6ca77dbc392f4f8,109.122.201.136,"Mozilla/5.0 (Macintosh; Intel Mac OS X 10_15_7) AppleWebKit/537.36 (KHTML, like Gecko) Chrome/148.0.0.0 Safari/537.36",desktop,Chrome,148.0.0.0,OS X,10_15_7,null,"en-US,en;q=0.9,ru-RU;q=0.8,ru;q=0.7",p_1781096465926_0odu,1470,956,false,19,male,4,0,36761,"<div class=""box""><h2>Задача</h2><p>В каждой пробе сначала появится <strong>одно лицо</strong>. Его нужно запомнить.</p><p>Затем появится набор из нескольких лиц. Ваша задача — определить, было ли запомненное лицо в этом наборе.</p><div class=""keys""><div class=""key"">←<span>лица НЕ БЫЛО</span></div><div class=""key"">→<span>лицо БЫЛО</span></div></div><p>Держите пальцы на клавишах <strong>←</strong> и <strong>→</strong>.</p><p><strong>Важно:</strong> в начале каждой пробы — фиксационный крест (+). Смотрите на него и <strong>не двигайте глазами</strong> до появления набора. Отвечайте как можно быстрее.</p><p>Если ответ не дан в течение 5 секунд — проба завершится автоматически.</p><p>Сначала — несколько тренировочных проб с обратной связью.</p></div>",0,,,,,,,,,,,,,,,,,,,,
,,,,,html-keyboard-response,5,72026,0.0-5.0,24,1,2026-06-10 13:01:04,fac33314ff793864f6ca77dbc392f4f8,109.122.201.136,"Mozilla/5.0 (Macintosh; Intel Mac OS X 10_15_7) AppleWebKit/537.36 (KHTML, like Gecko) Chrome/148.0.0.0 Safari/537.36",desktop,Chrome,148.0.0.0,OS X,10_15_7,null,"en-US,en;q=0.9,ru-RU;q=0.8,ru;q=0.7",p_1781096465926_0odu,1470,956,false,19,male,4,0,null,"<p style=""font-size:60px;color:#fff;margin:0"">+</p>",null,,,,,,,,,,,,,,,,,,,,
,,,,,html-keyboard-response,6,73528,0.0-6.0,24,1,2026-06-10 13:01:04,fac33314ff793864f6ca77dbc392f4f8,109.122.201.136,"Mozilla/5.0 (Macintosh; Intel Mac OS X 10_15_7) AppleWebKit/537.36 (KHTML, like Gecko) Chrome/148.0.0.0 Safari/537.36",desktop,Chrome,148.0.0.0,OS X,10_15_7,null,"en-US,en;q=0.9,ru-RU;q=0.8,ru;q=0.7",p_1781096465926_0odu,1470,956,false,19,male,4,0,null,"<div style=""text-align:center""><p style=""color:#fff;font-size:18px;margin-bottom:12px"">Запомните это лицо</p><img src=""ai_003.png"" style=""width:256px;height:256px;object-fit:contain;border:3px solid #fff;border-radius:4px;background:#808080""></div>",null,,,,,,,,,,,,,,,,,,,,
,,,,,html-keyboard-response,7,74029,0.0-7.0,24,1,2026-06-10 13:01:04,fac33314ff793864f6ca77dbc392f4f8,109.122.201.136,"Mozilla/5.0 (Macintosh; Intel Mac OS X 10_15_7) AppleWebKit/537.36 (KHTML, like Gecko) Chrome/148.0.0.0 Safari/537.36",desktop,Chrome,148.0.0.0,OS X,10_15_7,null,"en-US,en;q=0.9,ru-RU;q=0.8,ru;q=0.7",p_1781096465926_0odu,1470,956,false,19,male,4,0,null,"<p style=""color:#808080;font-size:1px"">.</p>",null,,,,,,,,,,,,,,,,,,,,
,,,,,html-keyboard-response,8,75785,0.0-8.0,24,1,2026-06-10 13:01:04,fac33314ff793864f6ca77dbc392f4f8,109.122.201.136,"Mozilla/5.0 (Macintosh; Intel Mac OS X 10_15_7) AppleWebKit/537.36 (KHTML, like Gecko) Chrome/148.0.0.0 Safari/537.36",desktop,Chrome,148.0.0.0,OS X,10_15_7,null,"en-US,en;q=0.9,ru-RU;q=0.8,ru;q=0.7",p_1781096465926_0odu,1470,956,false,19,male,4,0,1754,"<div style=""text-align:center""><img src=""ff_v4_032.png"" style=""max-width:90vw;max-height:72vh;display:block;margin:0 auto""><p style=""color:#fff;font-size:18px;margin-top:16px"">Было ли запомненное лицо в наборе?</p><div class=""keys"" style=""margin-top:12px""><div class=""key"">←<span>НЕ БЫЛО</span></div><div class=""key"">→<span>БЫЛО</span></div></div></div>",arrowright,true,ff_032,face_face,ai,4,true,ai_003.png,ff_v4_032.png,4,arrowright,1,true,false,true,9,,,,,
,,,,,html-keyboard-response,9,76588,0.0-9.0,24,1,2026-06-10 13:01:04,fac33314ff793864f6ca77dbc392f4f8,109.122.201.136,"Mozilla/5.0 (Macintosh; Intel Mac OS X 10_15_7) AppleWebKit/537.36 (KHTML, like Gecko) Chrome/148.0.0.0 Safari/537.36",desktop,Chrome,148.0.0.0,OS X,10_15_7,null,"en-US,en;q=0.9,ru-RU;q=0.8,ru;q=0.7",p_1781096465926_0odu,1470,956,false,19,male,4,0,null,"<p class=""fb-yes"">Верно</p>",null,,,,,,,,,,,,,,,,,,,,
,,,,,html-keyboard-response,10,77090,0.0-10.0,24,1,2026-06-10 13:01:04,fac33314ff793864f6ca77dbc392f4f8,109.122.201.136,"Mozilla/5.0 (Macintosh; Intel Mac OS X 10_15_7) AppleWebKit/537.36 (KHTML, like Gecko) Chrome/148.0.0.0 Safari/537.36",desktop,Chrome,148.0.0.0,OS X,10_15_7,null,"en-US,en;q=0.9,ru-RU;q=0.8,ru;q=0.7",p_1781096465926_0odu,1470,956,false,19,male,4,0,null,"<p style=""color:#808080;font-size:1px"">.</p>",null,,,,,,,,,,,,,,,,,,,,
,,,,,html-keyboard-response,11,77592,0.0-11.0,24,1,2026-06-10 13:01:04,fac33314ff793864f6ca77dbc392f4f8,109.122.201.136,"Mozilla/5.0 (Macintosh; Intel Mac OS X 10_15_7) AppleWebKit/537.36 (KHTML, like Gecko) Chrome/148.0.0.0 Safari/537.36",desktop,Chrome,148.0.0.0,OS X,10_15_7,null,"en-US,en;q=0.9,ru-RU;q=0.8,ru;q=0.7",p_1781096465926_0odu,1470,956,false,19,male,4,0,null,"<p style=""font-size:60px;color:#fff;margin:0"">+</p>",null,,,,,,,,,,,,,,,,,,,,
,,,,,html-keyboard-response,12,79094,0.0-12.0,24,1,2026-06-10 13:01:04,fac33314ff793864f6ca77dbc392f4f8,109.122.201.136,"Mozilla/5.0 (Macintosh; Intel Mac OS X 10_15_7) AppleWebKit/537.36 (KHTML, like Gecko) Chrome/148.0.0.0 Safari/537.36",desktop,Chrome,148.0.0.0,OS X,10_15_7,null,"en-US,en;q=0.9,ru-RU;q=0.8,ru;q=0.7",p_1781096465926_0odu,1470,956,false,19,male,4,0,null,"<div style=""text-align:center""><p style=""color:#fff;font-size:18px;margin-bottom:12px"">Запомните это лицо</p><img src=""real_002.png"" style=""width:256px;height:256px;object-fit:contain;border:3px solid #fff;border-radius:4px;background:#808080""></div>",null,,,,,,,,,,,,,,,,,,,,
,,,,,html-keyboard-response,13,79596,0.0-13.0,24,1,2026-06-10 13:01:04,fac33314ff793864f6ca77dbc392f4f8,109.122.201.136,"Mozilla/5.0 (Macintosh; Intel Mac OS X 10_15_7) AppleWebKit/537.36 (KHTML, like Gecko) Chrome/148.0.0.0 Safari/537.36",desktop,Chrome,148.0.0.0,OS X,10_15_7,null,"en-US,en;q=0.9,ru-RU;q=0.8,ru;q=0.7",p_1781096465926_0odu,1470,956,false,19,male,4,0,null,"<p style=""color:#808080;font-size:1px"">.</p>",null,,,,,,,,,,,,,,,,,,,,
,,,,,html-keyboard-response,14,81999,0.0-14.0,24,1,2026-06-10 13:01:04,fac33314ff793864f6ca77dbc392f4f8,109.122.201.136,"Mozilla/5.0 (Macintosh; Intel Mac OS X 10_15_7) AppleWebKit/537.36 (KHTML, like Gecko) Chrome/148.0.0.0 Safari/537.36",desktop,Chrome,148.0.0.0,OS X,10_15_7,null,"en-US,en;q=0.9,ru-RU;q=0.8,ru;q=0.7",p_1781096465926_0odu,1470,956,false,19,male,4,0,2402,"<div style=""text-align:center""><img src=""ff_v4_008.png"" style=""max-width:90vw;max-height:72vh;display:block;margin:0 auto""><p style=""color:#fff;font-size:18px;margin-top:16px"">Было ли запомненное лицо в наборе?</p><div class=""keys"" style=""margin-top:12px""><div class=""key"">←<span>НЕ БЫЛО</span></div><div class=""key"">→<span>БЫЛО</span></div></div></div>",arrowleft,true,ff_008,face_face,real,8,false,real_002.png,ff_v4_008.png,,arrowleft,1,true,false,true,15,,,,,
,,,,,html-keyboard-response,15,82801,0.0-15.0,24,1,2026-06-10 13:01:04,fac33314ff793864f6ca77dbc392f4f8,109.122.201.136,"Mozilla/5.0 (Macintosh; Intel Mac OS X 10_15_7) AppleWebKit/537.36 (KHTML, like Gecko) Chrome/148.0.0.0 Safari/537.36",desktop,Chrome,148.0.0.0,OS X,10_15_7,null,"en-US,en;q=0.9,ru-RU;q=0.8,ru;q=0.7",p_1781096465926_0odu,1470,956,false,19,male,4,0,null,"<p class=""fb-yes"">Верно</p>",null,,,,,,,,,,,,,,,,,,,,
,,,,,html-keyboard-response,16,83303,0.0-16.0,24,1,2026-06-10 13:01:04,fac33314ff793864f6ca77dbc392f4f8,109.122.201.136,"Mozilla/5.0 (Macintosh; Intel Mac OS X 10_15_7) AppleWebKit/537.36 (KHTML, like Gecko) Chrome/148.0.0.0 Safari/537.36",desktop,Chrome,148.0.0.0,OS X,10_15_7,null,"en-US,en;q=0.9,ru-RU;q=0.8,ru;q=0.7",p_1781096465926_0odu,1470,956,false,19,male,4,0,null,"<p style=""color:#808080;font-size:1px"">.</p>",null,,,,,,,,,,,,,,,,,,,,
,,,,,html-keyboard-response,17,83804,0.0-17.0,24,1,2026-06-10 13:01:04,fac33314ff793864f6ca77dbc392f4f8,109.122.201.136,"Mozilla/5.0 (Macintosh; Intel Mac OS X 10_15_7) AppleWebKit/537.36 (KHTML, like Gecko) Chrome/148.0.0.0 Safari/537.36",desktop,Chrome,148.0.0.0,OS X,10_15_7,null,"en-US,en;q=0.9,ru-RU;q=0.8,ru;q=0.7",p_1781096465926_0odu,1470,956,false,19,male,4,0,null,"<p style=""font-size:60px;color:#fff;margin:0"">+</p>",null,,,,,,,,,,,,,,,,,,,,
,,,,,html-keyboard-response,18,85307,0.0-18.0,24,1,2026-06-10 13:01:04,fac33314ff793864f6ca77dbc392f4f8,109.122.201.136,"Mozilla/5.0 (Macintosh; Intel Mac OS X 10_15_7) AppleWebKit/537.36 (KHTML, like Gecko) Chrome/148.0.0.0 Safari/537.36",desktop,Chrome,148.0.0.0,OS X,10_15_7,null,"en-US,en;q=0.9,ru-RU;q=0.8,ru;q=0.7",p_1781096465926_0odu,1470,956,false,19,male,4,0,null,"<div style=""text-align:center""><p style=""color:#fff;font-size:18px;margin-bottom:12px"">Запомните это лицо</p><img src=""ai_001.png"" style=""width:256px;height:256px;object-fit:contain;border:3px solid #fff;border-radius:4px;background:#808080""></div>",null,,,,,,,,,,,,,,,,,,,,
,,,,,html-keyboard-response,19,85809,0.0-19.0,24,1,2026-06-10 13:01:04,fac33314ff793864f6ca77dbc392f4f8,109.122.201.136,"Mozilla/5.0 (Macintosh; Intel Mac OS X 10_15_7) AppleWebKit/537.36 (KHTML, like Gecko) Chrome/148.0.0.0 Safari/537.36",desktop,Chrome,148.0.0.0,OS X,10_15_7,null,"en-US,en;q=0.9,ru-RU;q=0.8,ru;q=0.7",p_1781096465926_0odu,1470,956,false,19,male,4,0,null,"<p style=""color:#808080;font-size:1px"">.</p>",null,,,,,,,,,,,,,,,,,,,,
,,,,,html-keyboard-response,20,87399,0.0-20.0,24,1,2026-06-10 13:01:04,fac33314ff793864f6ca77dbc392f4f8,109.122.201.136,"Mozilla/5.0 (Macintosh; Intel Mac OS X 10_15_7) AppleWebKit/537.36 (KHTML, like Gecko) Chrome/148.0.0.0 Safari/537.36",desktop,Chrome,148.0.0.0,OS X,10_15_7,null,"en-US,en;q=0.9,ru-RU;q=0.8,ru;q=0.7",p_1781096465926_0odu,1470,956,false,19,male,4,0,1588,"<div style=""text-align:center""><img src=""ff_v4_022.png"" style=""max-width:90vw;max-height:72vh;display:block;margin:0 auto""><p style=""color:#fff;font-size:18px;margin-top:16px"">Было ли запомненное лицо в наборе?</p><div class=""keys"" style=""margin-top:12px""><div class=""key"">←<span>НЕ БЫЛО</span></div><div class=""key"">→<span>БЫЛО</span></div></div></div>",arrowleft,true,ff_022,face_face,ai,4,false,ai_001.png,ff_v4_022.png,,arrowleft,1,true,false,true,21,,,,,
,,,,,html-keyboard-response,21,88201,0.0-21.0,24,1,2026-06-10 13:01:04,fac33314ff793864f6ca77dbc392f4f8,109.122.201.136,"Mozilla/5.0 (Macintosh; Intel Mac OS X 10_15_7) AppleWebKit/537.36 (KHTML, like Gecko) Chrome/148.0.0.0 Safari/537.36",desktop,Chrome,148.0.0.0,OS X,10_15_7,null,"en-US,en;q=0.9,ru-RU;q=0.8,ru;q=0.7",p_1781096465926_0odu,1470,956,false,19,male,4,0,null,"<p class=""fb-yes"">Верно</p>",null,,,,,,,,,,,,,,,,,,,,
,,,,,html-keyboard-response,22,88703,0.0-22.0,24,1,2026-06-10 13:01:04,fac33314ff793864f6ca77dbc392f4f8,109.122.201.136,"Mozilla/5.0 (Macintosh; Intel Mac OS X 10_15_7) AppleWebKit/537.36 (KHTML, like Gecko) Chrome/148.0.0.0 Safari/537.36",desktop,Chrome,148.0.0.0,OS X,10_15_7,null,"en-US,en;q=0.9,ru-RU;q=0.8,ru;q=0.7",p_1781096465926_0odu,1470,956,false,19,male,4,0,null,"<p style=""color:#808080;font-size:1px"">.</p>",null,,,,,,,,,,,,,,,,,,,,
,,,,,html-keyboard-response,23,89205,0.0-23.0,24,1,2026-06-10 13:01:04,fac33314ff793864f6ca77dbc392f4f8,109.122.201.136,"Mozilla/5.0 (Macintosh; Intel Mac OS X 10_15_7) AppleWebKit/537.36 (KHTML, like Gecko) Chrome/148.0.0.0 Safari/537.36",desktop,Chrome,148.0.0.0,OS X,10_15_7,null,"en-US,en;q=0.9,ru-RU;q=0.8,ru;q=0.7",p_1781096465926_0odu,1470,956,false,19,male,4,0,null,"<p style=""font-size:60px;color:#fff;margin:0"">+</p>",null,,,,,,,,,,,,,,,,,,,,
,,,,,html-keyboard-response,24,90706,0.0-24.0,24,1,2026-06-10 13:01:04,fac33314ff793864f6ca77dbc392f4f8,109.122.201.136,"Mozilla/5.0 (Macintosh; Intel Mac OS X 10_15_7) AppleWebKit/537.36 (KHTML, like Gecko) Chrome/148.0.0.0 Safari/537.36",desktop,Chrome,148.0.0.0,OS X,10_15_7,null,"en-US,en;q=0.9,ru-RU;q=0.8,ru;q=0.7",p_1781096465926_0odu,1470,956,false,19,male,4,0,null,"<div style=""text-align:center""><p style=""color:#fff;font-size:18px;margin-bottom:12px"">Запомните это лицо</p><img src=""ai_006.png"" style=""width:256px;height:256px;object-fit:contain;border:3px solid #fff;border-radius:4px;background:#808080""></div>",null,,,,,,,,,,,,,,,,,,,,
,,,,,html-keyboard-response,25,91209,0.0-25.0,24,1,2026-06-10 13:01:04,fac33314ff793864f6ca77dbc392f4f8,109.122.201.136,"Mozilla/5.0 (Macintosh; Intel Mac OS X 10_15_7) AppleWebKit/537.36 (KHTML, like Gecko) Chrome/148.0.0.0 Safari/537.36",desktop,Chrome,148.0.0.0,OS X,10_15_7,null,"en-US,en;q=0.9,ru-RU;q=0.8,ru;q=0.7",p_1781096465926_0odu,1470,956,false,19,male,4,0,null,"<p style=""color:#808080;font-size:1px"">.</p>",null,,,,,,,,,,,,,,,,,,,,
,,,,,html-keyboard-response,26,92310,0.0-26.0,24,1,2026-06-10 13:01:04,fac33314ff793864f6ca77dbc392f4f8,109.122.201.136,"Mozilla/5.0 (Macintosh; Intel Mac OS X 10_15_7) AppleWebKit/537.36 (KHTML, like Gecko) Chrome/148.0.0.0 Safari/537.36",desktop,Chrome,148.0.0.0,OS X,10_15_7,null,"en-US,en;q=0.9,ru-RU;q=0.8,ru;q=0.7",p_1781096465926_0odu,1470,956,false,19,male,4,0,1100,"<div style=""text-align:center""><img src=""ff_v4_006.png"" style=""max-width:90vw;max-height:72vh;display:block;margin:0 auto""><p style=""color:#fff;font-size:18px;margin-top:16px"">Было ли запомненное лицо в наборе?</p><div class=""keys"" style=""margin-top:12px""><div class=""key"">←<span>НЕ БЫЛО</span></div><div class=""key"">→<span>БЫЛО</span></div></div></div>",arrowright,true,ff_006,face_face,ai,4,true,ai_006.png,ff_v4_006.png,1,arrowright,1,true,false,true,27,,,,,
,,,,,html-keyboard-response,27,93111,0.0-27.0,24,1,2026-06-10 13:01:04,fac33314ff793864f6ca77dbc392f4f8,109.122.201.136,"Mozilla/5.0 (Macintosh; Intel Mac OS X 10_15_7) AppleWebKit/537.36 (KHTML, like Gecko) Chrome/148.0.0.0 Safari/537.36",desktop,Chrome,148.0.0.0,OS X,10_15_7,null,"en-US,en;q=0.9,ru-RU;q=0.8,ru;q=0.7",p_1781096465926_0odu,1470,956,false,19,male,4,0,null,"<p class=""fb-yes"">Верно</p>",null,,,,,,,,,,,,,,,,,,,,
,,,,,html-keyboard-response,28,93614,0.0-28.0,24,1,2026-06-10 13:01:04,fac33314ff793864f6ca77dbc392f4f8,109.122.201.136,"Mozilla/5.0 (Macintosh; Intel Mac OS X 10_15_7) AppleWebKit/537.36 (KHTML, like Gecko) Chrome/148.0.0.0 Safari/537.36",desktop,Chrome,148.0.0.0,OS X,10_15_7,null,"en-US,en;q=0.9,ru-RU;q=0.8,ru;q=0.7",p_1781096465926_0odu,1470,956,false,19,male,4,0,null,"<p style=""color:#808080;font-size:1px"">.</p>",null,,,,,,,,,,,,,,,,,,,,
,,,,,html-keyboard-response,29,94116,0.0-29.0,24,1,2026-06-10 13:01:04,fac33314ff793864f6ca77dbc392f4f8,109.122.201.136,"Mozilla/5.0 (Macintosh; Intel Mac OS X 10_15_7) AppleWebKit/537.36 (KHTML, like Gecko) Chrome/148.0.0.0 Safari/537.36",desktop,Chrome,148.0.0.0,OS X,10_15_7,null,"en-US,en;q=0.9,ru-RU;q=0.8,ru;q=0.7",p_1781096465926_0odu,1470,956,false,19,male,4,0,null,"<p style=""font-size:60px;color:#fff;margin:0"">+</p>",null,,,,,,,,,,,,,,,,,,,,
,,,,,html-keyboard-response,30,95619,0.0-30.0,24,1,2026-06-10 13:01:04,fac33314ff793864f6ca77dbc392f4f8,109.122.201.136,"Mozilla/5.0 (Macintosh; Intel Mac OS X 10_15_7) AppleWebKit/537.36 (KHTML, like Gecko) Chrome/148.0.0.0 Safari/537.36",desktop,Chrome,148.0.0.0,OS X,10_15_7,null,"en-US,en;q=0.9,ru-RU;q=0.8,ru;q=0.7",p_1781096465926_0odu,1470,956,false,19,male,4,0,null,"<div style=""text-align:center""><p style=""color:#fff;font-size:18px;margin-bottom:12px"">Запомните это лицо</p><img src=""real_039.png"" style=""width:256px;height:256px;object-fit:contain;border:3px solid #fff;border-radius:4px;background:#808080""></div>",null,,,,,,,,,,,,,,,,,,,,
,,,,,html-keyboard-response,31,96121,0.0-31.0,24,1,2026-06-10 13:01:04,fac33314ff793864f6ca77dbc392f4f8,109.122.201.136,"Mozilla/5.0 (Macintosh; Intel Mac OS X 10_15_7) AppleWebKit/537.36 (KHTML, like Gecko) Chrome/148.0.0.0 Safari/537.36",desktop,Chrome,148.0.0.0,OS X,10_15_7,null,"en-US,en;q=0.9,ru-RU;q=0.8,ru;q=0.7",p_1781096465926_0odu,1470,956,false,19,male,4,0,null,"<p style=""color:#808080;font-size:1px"">.</p>",null,,,,,,,,,,,,,,,,,,,,
,,,,,html-keyboard-response,32,97723,0.0-32.0,24,1,2026-06-10 13:01:04,fac33314ff793864f6ca77dbc392f4f8,109.122.201.136,"Mozilla/5.0 (Macintosh; Intel Mac OS X 10_15_7) AppleWebKit/537.36 (KHTML, like Gecko) Chrome/148.0.0.0 Safari/537.36",desktop,Chrome,148.0.0.0,OS X,10_15_7,null,"en-US,en;q=0.9,ru-RU;q=0.8,ru;q=0.7",p_1781096465926_0odu,1470,956,false,19,male,4,0,1601,"<div style=""text-align:center""><img src=""ff_v4_027.png"" style=""max-width:90vw;max-height:72vh;display:block;margin:0 auto""><p style=""color:#fff;font-size:18px;margin-top:16px"">Было ли запомненное лицо в наборе?</p><div class=""keys"" style=""margin-top:12px""><div class=""key"">←<span>НЕ БЫЛО</span></div><div class=""key"">→<span>БЫЛО</span></div></div></div>",arrowleft,true,ff_027,face_face,real,4,false,real_039.png,ff_v4_027.png,,arrowleft,1,true,false,true,33,,,,,
,,,,,html-keyboard-response,33,98526,0.0-33.0,24,1,2026-06-10 13:01:04,fac33314ff793864f6ca77dbc392f4f8,109.122.201.136,"Mozilla/5.0 (Macintosh; Intel Mac OS X 10_15_7) AppleWebKit/537.36 (KHTML, like Gecko) Chrome/148.0.0.0 Safari/537.36",desktop,Chrome,148.0.0.0,OS X,10_15_7,null,"en-US,en;q=0.9,ru-RU;q=0.8,ru;q=0.7",p_1781096465926_0odu,1470,956,false,19,male,4,0,null,"<p class=""fb-yes"">Верно</p>",null,,,,,,,,,,,,,,,,,,,,
,,,,,html-keyboard-response,34,99028,0.0-34.0,24,1,2026-06-10 13:01:04,fac33314ff793864f6ca77dbc392f4f8,109.122.201.136,"Mozilla/5.0 (Macintosh; Intel Mac OS X 10_15_7) AppleWebKit/537.36 (KHTML, like Gecko) Chrome/148.0.0.0 Safari/537.36",desktop,Chrome,148.0.0.0,OS X,10_15_7,null,"en-US,en;q=0.9,ru-RU;q=0.8,ru;q=0.7",p_1781096465926_0odu,1470,956,false,19,male,4,0,null,"<p style=""color:#808080;font-size:1px"">.</p>",null,,,,,,,,,,,,,,,,,,,,
,,,,,html-keyboard-response,35,99530,0.0-35.0,24,1,2026-06-10 13:01:04,fac33314ff793864f6ca77dbc392f4f8,109.122.201.136,"Mozilla/5.0 (Macintosh; Intel Mac OS X 10_15_7) AppleWebKit/537.36 (KHTML, like Gecko) Chrome/148.0.0.0 Safari/537.36",desktop,Chrome,148.0.0.0,OS X,10_15_7,null,"en-US,en;q=0.9,ru-RU;q=0.8,ru;q=0.7",p_1781096465926_0odu,1470,956,false,19,male,4,0,null,"<p style=""font-size:60px;color:#fff;margin:0"">+</p>",null,,,,,,,,,,,,,,,,,,,,
,,,,,html-keyboard-response,36,101033,0.0-36.0,24,1,2026-06-10 13:01:04,fac33314ff793864f6ca77dbc392f4f8,109.122.201.136,"Mozilla/5.0 (Macintosh; Intel Mac OS X 10_15_7) AppleWebKit/537.36 (KHTML, like Gecko) Chrome/148.0.0.0 Safari/537.36",desktop,Chrome,148.0.0.0,OS X,10_15_7,null,"en-US,en;q=0.9,ru-RU;q=0.8,ru;q=0.7",p_1781096465926_0odu,1470,956,false,19,male,4,0,null,"<div style=""text-align:center""><p style=""color:#fff;font-size:18px;margin-bottom:12px"">Запомните это лицо</p><img src=""real_015.png"" style=""width:256px;height:256px;object-fit:contain;border:3px solid #fff;border-radius:4px;background:#808080""></div>",null,,,,,,,,,,,,,,,,,,,,
,,,,,html-keyboard-response,37,101534,0.0-37.0,24,1,2026-06-10 13:01:04,fac33314ff793864f6ca77dbc392f4f8,109.122.201.136,"Mozilla/5.0 (Macintosh; Intel Mac OS X 10_15_7) AppleWebKit/537.36 (KHTML, like Gecko) Chrome/148.0.0.0 Safari/537.36",desktop,Chrome,148.0.0.0,OS X,10_15_7,null,"en-US,en;q=0.9,ru-RU;q=0.8,ru;q=0.7",p_1781096465926_0odu,1470,956,false,19,male,4,0,null,"<p style=""color:#808080;font-size:1px"">.</p>",null,,,,,,,,,,,,,,,,,,,,
,,,,,html-keyboard-response,38,102711,0.0-38.0,24,1,2026-06-10 13:01:04,fac33314ff793864f6ca77dbc392f4f8,109.122.201.136,"Mozilla/5.0 (Macintosh; Intel Mac OS X 10_15_7) AppleWebKit/537.36 (KHTML, like Gecko) Chrome/148.0.0.0 Safari/537.36",desktop,Chrome,148.0.0.0,OS X,10_15_7,null,"en-US,en;q=0.9,ru-RU;q=0.8,ru;q=0.7",p_1781096465926_0odu,1470,956,false,19,male,4,0,1176,"<div style=""text-align:center""><img src=""ff_v4_005.png"" style=""max-width:90vw;max-height:72vh;display:block;margin:0 auto""><p style=""color:#fff;font-size:18px;margin-top:16px"">Было ли запомненное лицо в наборе?</p><div class=""keys"" style=""margin-top:12px""><div class=""key"">←<span>НЕ БЫЛО</span></div><div class=""key"">→<span>БЫЛО</span></div></div></div>",arrowleft,true,ff_005,face_face,real,4,false,real_015.png,ff_v4_005.png,,arrowleft,1,true,false,true,39,,,,,
,,,,,html-keyboard-response,39,103514,0.0-39.0,24,1,2026-06-10 13:01:04,fac33314ff793864f6ca77dbc392f4f8,109.122.201.136,"Mozilla/5.0 (Macintosh; Intel Mac OS X 10_15_7) AppleWebKit/537.36 (KHTML, like Gecko) Chrome/148.0.0.0 Safari/537.36",desktop,Chrome,148.0.0.0,OS X,10_15_7,null,"en-US,en;q=0.9,ru-RU;q=0.8,ru;q=0.7",p_1781096465926_0odu,1470,956,false,19,male,4,0,null,"<p class=""fb-yes"">Верно</p>",null,,,,,,,,,,,,,,,,,,,,
,,,,,html-keyboard-response,40,104016,0.0-40.0,24,1,2026-06-10 13:01:04,fac33314ff793864f6ca77dbc392f4f8,109.122.201.136,"Mozilla/5.0 (Macintosh; Intel Mac OS X 10_15_7) AppleWebKit/537.36 (KHTML, like Gecko) Chrome/148.0.0.0 Safari/537.36",desktop,Chrome,148.0.0.0,OS X,10_15_7,null,"en-US,en;q=0.9,ru-RU;q=0.8,ru;q=0.7",p_1781096465926_0odu,1470,956,false,19,male,4,0,null,"<p style=""color:#808080;font-size:1px"">.</p>",null,,,,,,,,,,,,,,,,,,,,
,,,,,html-keyboard-response,41,104518,0.0-41.0,24,1,2026-06-10 13:01:04,fac33314ff793864f6ca77dbc392f4f8,109.122.201.136,"Mozilla/5.0 (Macintosh; Intel Mac OS X 10_15_7) AppleWebKit/537.36 (KHTML, like Gecko) Chrome/148.0.0.0 Safari/537.36",desktop,Chrome,148.0.0.0,OS X,10_15_7,null,"en-US,en;q=0.9,ru-RU;q=0.8,ru;q=0.7",p_1781096465926_0odu,1470,956,false,19,male,4,0,null,"<p style=""font-size:60px;color:#fff;margin:0"">+</p>",null,,,,,,,,,,,,,,,,,,,,
,,,,,html-keyboard-response,42,106021,0.0-42.0,24,1,2026-06-10 13:01:04,fac33314ff793864f6ca77dbc392f4f8,109.122.201.136,"Mozilla/5.0 (Macintosh; Intel Mac OS X 10_15_7) AppleWebKit/537.36 (KHTML, like Gecko) Chrome/148.0.0.0 Safari/537.36",desktop,Chrome,148.0.0.0,OS X,10_15_7,null,"en-US,en;q=0.9,ru-RU;q=0.8,ru;q=0.7",p_1781096465926_0odu,1470,956,false,19,male,4,0,null,"<div style=""text-align:center""><p style=""color:#fff;font-size:18px;margin-bottom:12px"">Запомните это лицо</p><img src=""ai_001.png"" style=""width:256px;height:256px;object-fit:contain;border:3px solid #fff;border-radius:4px;background:#808080""></div>",null,,,,,,,,,,,,,,,,,,,,
,,,,,html-keyboard-response,43,106523,0.0-43.0,24,1,2026-06-10 13:01:04,fac33314ff793864f6ca77dbc392f4f8,109.122.201.136,"Mozilla/5.0 (Macintosh; Intel Mac OS X 10_15_7) AppleWebKit/537.36 (KHTML, like Gecko) Chrome/148.0.0.0 Safari/537.36",desktop,Chrome,148.0.0.0,OS X,10_15_7,null,"en-US,en;q=0.9,ru-RU;q=0.8,ru;q=0.7",p_1781096465926_0odu,1470,956,false,19,male,4,0,null,"<p style=""color:#808080;font-size:1px"">.</p>",null,,,,,,,,,,,,,,,,,,,,
,,,,,html-keyboard-response,44,109551,0.0-44.0,24,1,2026-06-10 13:01:04,fac33314ff793864f6ca77dbc392f4f8,109.122.201.136,"Mozilla/5.0 (Macintosh; Intel Mac OS X 10_15_7) AppleWebKit/537.36 (KHTML, like Gecko) Chrome/148.0.0.0 Safari/537.36",desktop,Chrome,148.0.0.0,OS X,10_15_7,null,"en-US,en;q=0.9,ru-RU;q=0.8,ru;q=0.7",p_1781096465926_0odu,1470,956,false,19,male,4,0,3027,"<div style=""text-align:center""><img src=""ff_v4_035.png"" style=""max-width:90vw;max-height:72vh;display:block;margin:0 auto""><p style=""color:#fff;font-size:18px;margin-top:16px"">Было ли запомненное лицо в наборе?</p><div class=""keys"" style=""margin-top:12px""><div class=""key"">←<span>НЕ БЫЛО</span></div><div class=""key"">→<span>БЫЛО</span></div></div></div>",arrowright,true,ff_035,face_face,ai,8,false,ai_001.png,ff_v4_035.png,,arrowleft,1,true,false,false,45,,,,,
,,,,,html-keyboard-response,45,110352,0.0-45.0,24,1,2026-06-10 13:01:04,fac33314ff793864f6ca77dbc392f4f8,109.122.201.136,"Mozilla/5.0 (Macintosh; Intel Mac OS X 10_15_7) AppleWebKit/537.36 (KHTML, like Gecko) Chrome/148.0.0.0 Safari/537.36",desktop,Chrome,148.0.0.0,OS X,10_15_7,null,"en-US,en;q=0.9,ru-RU;q=0.8,ru;q=0.7",p_1781096465926_0odu,1470,956,false,19,male,4,0,null,"<p class=""fb-no"">Неверно</p>",null,,,,,,,,,,,,,,,,,,,,
,,,,,html-keyboard-response,46,110854,0.0-46.0,24,1,2026-06-10 13:01:04,fac33314ff793864f6ca77dbc392f4f8,109.122.201.136,"Mozilla/5.0 (Macintosh; Intel Mac OS X 10_15_7) AppleWebKit/537.36 (KHTML, like Gecko) Chrome/148.0.0.0 Safari/537.36",desktop,Chrome,148.0.0.0,OS X,10_15_7,null,"en-US,en;q=0.9,ru-RU;q=0.8,ru;q=0.7",p_1781096465926_0odu,1470,956,false,19,male,4,0,null,"<p style=""color:#808080;font-size:1px"">.</p>",null,,,,,,,,,,,,,,,,,,,,
,,,,,html-keyboard-response,47,111356,0.0-47.0,24,1,2026-06-10 13:01:04,fac33314ff793864f6ca77dbc392f4f8,109.122.201.136,"Mozilla/5.0 (Macintosh; Intel Mac OS X 10_15_7) AppleWebKit/537.36 (KHTML, like Gecko) Chrome/148.0.0.0 Safari/537.36",desktop,Chrome,148.0.0.0,OS X,10_15_7,null,"en-US,en;q=0.9,ru-RU;q=0.8,ru;q=0.7",p_1781096465926_0odu,1470,956,false,19,male,4,0,null,"<p style=""font-size:60px;color:#fff;margin:0"">+</p>",null,,,,,,,,,,,,,,,,,,,,
,,,,,html-keyboard-response,48,112859,0.0-48.0,24,1,2026-06-10 13:01:04,fac33314ff793864f6ca77dbc392f4f8,109.122.201.136,"Mozilla/5.0 (Macintosh; Intel Mac OS X 10_15_7) AppleWebKit/537.36 (KHTML, like Gecko) Chrome/148.0.0.0 Safari/537.36",desktop,Chrome,148.0.0.0,OS X,10_15_7,null,"en-US,en;q=0.9,ru-RU;q=0.8,ru;q=0.7",p_1781096465926_0odu,1470,956,false,19,male,4,0,null,"<div style=""text-align:center""><p style=""color:#fff;font-size:18px;margin-bottom:12px"">Запомните это лицо</p><img src=""real_010.png"" style=""width:256px;height:256px;object-fit:contain;border:3px solid #fff;border-radius:4px;background:#808080""></div>",null,,,,,,,,,,,,,,,,,,,,
,,,,,html-keyboard-response,49,113361,0.0-49.0,24,1,2026-06-10 13:01:04,fac33314ff793864f6ca77dbc392f4f8,109.122.201.136,"Mozilla/5.0 (Macintosh; Intel Mac OS X 10_15_7) AppleWebKit/537.36 (KHTML, like Gecko) Chrome/148.0.0.0 Safari/537.36",desktop,Chrome,148.0.0.0,OS X,10_15_7,null,"en-US,en;q=0.9,ru-RU;q=0.8,ru;q=0.7",p_1781096465926_0odu,1470,956,false,19,male,4,0,null,"<p style=""color:#808080;font-size:1px"">.</p>",null,,,,,,,,,,,,,,,,,,,,
,,,,,html-keyboard-response,50,115302,0.0-50.0,24,1,2026-06-10 13:01:04,fac33314ff793864f6ca77dbc392f4f8,109.122.201.136,"Mozilla/5.0 (Macintosh; Intel Mac OS X 10_15_7) AppleWebKit/537.36 (KHTML, like Gecko) Chrome/148.0.0.0 Safari/537.36",desktop,Chrome,148.0.0.0,OS X,10_15_7,null,"en-US,en;q=0.9,ru-RU;q=0.8,ru;q=0.7",p_1781096465926_0odu,1470,956,false,19,male,4,0,1939,"<div style=""text-align:center""><img src=""ff_v4_003.png"" style=""max-width:90vw;max-height:72vh;display:block;margin:0 auto""><p style=""color:#fff;font-size:18px;margin-top:16px"">Было ли запомненное лицо в наборе?</p><div class=""keys"" style=""margin-top:12px""><div class=""key"">←<span>НЕ БЫЛО</span></div><div class=""key"">→<span>БЫЛО</span></div></div></div>",arrowright,true,ff_003,face_face,real,4,true,real_010.png,ff_v4_003.png,3,arrowright,1,true,false,true,51,,,,,
,,,,,html-keyboard-response,51,116104,0.0-51.0,24,1,2026-06-10 13:01:04,fac33314ff793864f6ca77dbc392f4f8,109.122.201.136,"Mozilla/5.0 (Macintosh; Intel Mac OS X 10_15_7) AppleWebKit/537.36 (KHTML, like Gecko) Chrome/148.0.0.0 Safari/537.36",desktop,Chrome,148.0.0.0,OS X,10_15_7,null,"en-US,en;q=0.9,ru-RU;q=0.8,ru;q=0.7",p_1781096465926_0odu,1470,956,false,19,male,4,0,null,"<p class=""fb-yes"">Верно</p>",null,,,,,,,,,,,,,,,,,,,,
,,,,,html-keyboard-response,52,116606,0.0-52.0,24,1,2026-06-10 13:01:04,fac33314ff793864f6ca77dbc392f4f8,109.122.201.136,"Mozilla/5.0 (Macintosh; Intel Mac OS X 10_15_7) AppleWebKit/537.36 (KHTML, like Gecko) Chrome/148.0.0.0 Safari/537.36",desktop,Chrome,148.0.0.0,OS X,10_15_7,null,"en-US,en;q=0.9,ru-RU;q=0.8,ru;q=0.7",p_1781096465926_0odu,1470,956,false,19,male,4,0,null,"<p style=""color:#808080;font-size:1px"">.</p>",null,,,,,,,,,,,,,,,,,,,,
,,,,,html-button-response,53,120859,0.0-53.0,24,1,2026-06-10 13:01:04,fac33314ff793864f6ca77dbc392f4f8,109.122.201.136,"Mozilla/5.0 (Macintosh; Intel Mac OS X 10_15_7) AppleWebKit/537.36 (KHTML, like Gecko) Chrome/148.0.0.0 Safari/537.36",desktop,Chrome,148.0.0.0,OS X,10_15_7,null,"en-US,en;q=0.9,ru-RU;q=0.8,ru;q=0.7",p_1781096465926_0odu,1470,956,false,19,male,4,0,4251,"<div class=""box""><h2>Тренировка завершена</h2><p>Начинается основной блок. Обратной связи больше не будет.</p><p>Запоминайте показанное лицо и ищите его в наборе.</p><div class=""keys""><div class=""key"">←<span>НЕ БЫЛО</span></div><div class=""key"">→<span>БЫЛО</span></div></div></div>",0,,,,,,,,,,,,,,,,,,,,
,,,,,html-keyboard-response,54,121360,0.0-54.0,24,1,2026-06-10 13:01:04,fac33314ff793864f6ca77dbc392f4f8,109.122.201.136,"Mozilla/5.0 (Macintosh; Intel Mac OS X 10_15_7) AppleWebKit/537.36 (KHTML, like Gecko) Chrome/148.0.0.0 Safari/537.36",desktop,Chrome,148.0.0.0,OS X,10_15_7,null,"en-US,en;q=0.9,ru-RU;q=0.8,ru;q=0.7",p_1781096465926_0odu,1470,956,false,19,male,4,0,null,"<p style=""font-size:60px;color:#fff;margin:0"">+</p>",null,,,,,,,,,,,,,,,,,,,,
,,,,,html-keyboard-response,55,122862,0.0-55.0,24,1,2026-06-10 13:01:04,fac33314ff793864f6ca77dbc392f4f8,109.122.201.136,"Mozilla/5.0 (Macintosh; Intel Mac OS X 10_15_7) AppleWebKit/537.36 (KHTML, like Gecko) Chrome/148.0.0.0 Safari/537.36",desktop,Chrome,148.0.0.0,OS X,10_15_7,null,"en-US,en;q=0.9,ru-RU;q=0.8,ru;q=0.7",p_1781096465926_0odu,1470,956,false,19,male,4,0,null,"<div style=""text-align:center""><p style=""color:#fff;font-size:18px;margin-bottom:12px"">Запомните это лицо</p><img src=""real_039.png"" style=""width:256px;height:256px;object-fit:contain;border:3px solid #fff;border-radius:4px;background:#808080""></div>",null,,,,,,,,,,,,,,,,,,,,
,,,,,html-keyboard-response,56,123365,0.0-56.0,24,1,2026-06-10 13:01:04,fac33314ff793864f6ca77dbc392f4f8,109.122.201.136,"Mozilla/5.0 (Macintosh; Intel Mac OS X 10_15_7) AppleWebKit/537.36 (KHTML, like Gecko) Chrome/148.0.0.0 Safari/537.36",desktop,Chrome,148.0.0.0,OS X,10_15_7,null,"en-US,en;q=0.9,ru-RU;q=0.8,ru;q=0.7",p_1781096465926_0odu,1470,956,false,19,male,4,0,null,"<p style=""color:#808080;font-size:1px"">.</p>",null,,,,,,,,,,,,,,,,,,,,
,,,,,html-keyboard-response,57,124696,0.0-57.0,24,1,2026-06-10 13:01:04,fac33314ff793864f6ca77dbc392f4f8,109.122.201.136,"Mozilla/5.0 (Macintosh; Intel Mac OS X 10_15_7) AppleWebKit/537.36 (KHTML, like Gecko) Chrome/148.0.0.0 Safari/537.36",desktop,Chrome,148.0.0.0,OS X,10_15_7,null,"en-US,en;q=0.9,ru-RU;q=0.8,ru;q=0.7",p_1781096465926_0odu,1470,956,false,19,male,4,0,1330,"<div style=""text-align:center""><img src=""ff_v4_012.png"" style=""max-width:90vw;max-height:72vh;display:block;margin:0 auto""><p style=""color:#fff;font-size:18px;margin-top:16px"">Было ли запомненное лицо в наборе?</p><div class=""keys"" style=""margin-top:12px""><div class=""key"">←<span>НЕ БЫЛО</span></div><div class=""key"">→<span>БЫЛО</span></div></div></div>",arrowright,true,ff_012,face_face,real,4,true,real_039.png,ff_v4_012.png,1,arrowright,1,false,false,true,58,,,,,
,,,,,html-keyboard-response,58,125198,0.0-58.0,24,1,2026-06-10 13:01:04,fac33314ff793864f6ca77dbc392f4f8,109.122.201.136,"Mozilla/5.0 (Macintosh; Intel Mac OS X 10_15_7) AppleWebKit/537.36 (KHTML, like Gecko) Chrome/148.0.0.0 Safari/537.36",desktop,Chrome,148.0.0.0,OS X,10_15_7,null,"en-US,en;q=0.9,ru-RU;q=0.8,ru;q=0.7",p_1781096465926_0odu,1470,956,false,19,male,4,0,null,"<p style=""color:#808080;font-size:1px"">.</p>",null,,,,,,,,,,,,,,,,,,,,
,,,,,html-keyboard-response,59,125700,0.0-59.0,24,1,2026-06-10 13:01:04,fac33314ff793864f6ca77dbc392f4f8,109.122.201.136,"Mozilla/5.0 (Macintosh; Intel Mac OS X 10_15_7) AppleWebKit/537.36 (KHTML, like Gecko) Chrome/148.0.0.0 Safari/537.36",desktop,Chrome,148.0.0.0,OS X,10_15_7,null,"en-US,en;q=0.9,ru-RU;q=0.8,ru;q=0.7",p_1781096465926_0odu,1470,956,false,19,male,4,0,null,"<p style=""font-size:60px;color:#fff;margin:0"">+</p>",null,,,,,,,,,,,,,,,,,,,,
,,,,,html-keyboard-response,60,127203,0.0-60.0,24,1,2026-06-10 13:01:04,fac33314ff793864f6ca77dbc392f4f8,109.122.201.136,"Mozilla/5.0 (Macintosh; Intel Mac OS X 10_15_7) AppleWebKit/537.36 (KHTML, like Gecko) Chrome/148.0.0.0 Safari/537.36",desktop,Chrome,148.0.0.0,OS X,10_15_7,null,"en-US,en;q=0.9,ru-RU;q=0.8,ru;q=0.7",p_1781096465926_0odu,1470,956,false,19,male,4,0,null,"<div style=""text-align:center""><p style=""color:#fff;font-size:18px;margin-bottom:12px"">Запомните это лицо</p><img src=""real_020.png"" style=""width:256px;height:256px;object-fit:contain;border:3px solid #fff;border-radius:4px;background:#808080""></div>",null,,,,,,,,,,,,,,,,,,,,
,,,,,html-keyboard-response,61,127704,0.0-61.0,24,1,2026-06-10 13:01:04,fac33314ff793864f6ca77dbc392f4f8,109.122.201.136,"Mozilla/5.0 (Macintosh; Intel Mac OS X 10_15_7) AppleWebKit/537.36 (KHTML, like Gecko) Chrome/148.0.0.0 Safari/537.36",desktop,Chrome,148.0.0.0,OS X,10_15_7,null,"en-US,en;q=0.9,ru-RU;q=0.8,ru;q=0.7",p_1781096465926_0odu,1470,956,false,19,male,4,0,null,"<p style=""color:#808080;font-size:1px"">.</p>",null,,,,,,,,,,,,,,,,,,,,
,,,,,html-keyboard-response,62,129571,0.0-62.0,24,1,2026-06-10 13:01:04,fac33314ff793864f6ca77dbc392f4f8,109.122.201.136,"Mozilla/5.0 (Macintosh; Intel Mac OS X 10_15_7) AppleWebKit/537.36 (KHTML, like Gecko) Chrome/148.0.0.0 Safari/537.36",desktop,Chrome,148.0.0.0,OS X,10_15_7,null,"en-US,en;q=0.9,ru-RU;q=0.8,ru;q=0.7",p_1781096465926_0odu,1470,956,false,19,male,4,0,1865,"<div style=""text-align:center""><img src=""ff_v4_030.png"" style=""max-width:90vw;max-height:72vh;display:block;margin:0 auto""><p style=""color:#fff;font-size:18px;margin-top:16px"">Было ли запомненное лицо в наборе?</p><div class=""keys"" style=""margin-top:12px""><div class=""key"">←<span>НЕ БЫЛО</span></div><div class=""key"">→<span>БЫЛО</span></div></div></div>",arrowright,true,ff_030,face_face,real,8,true,real_020.png,ff_v4_030.png,7,arrowright,1,false,false,true,63,,,,,
,,,,,html-keyboard-response,63,130072,0.0-63.0,24,1,2026-06-10 13:01:04,fac33314ff793864f6ca77dbc392f4f8,109.122.201.136,"Mozilla/5.0 (Macintosh; Intel Mac OS X 10_15_7) AppleWebKit/537.36 (KHTML, like Gecko) Chrome/148.0.0.0 Safari/537.36",desktop,Chrome,148.0.0.0,OS X,10_15_7,null,"en-US,en;q=0.9,ru-RU;q=0.8,ru;q=0.7",p_1781096465926_0odu,1470,956,false,19,male,4,0,null,"<p style=""color:#808080;font-size:1px"">.</p>",null,,,,,,,,,,,,,,,,,,,,
,,,,,html-keyboard-response,64,130574,0.0-64.0,24,1,2026-06-10 13:01:04,fac33314ff793864f6ca77dbc392f4f8,109.122.201.136,"Mozilla/5.0 (Macintosh; Intel Mac OS X 10_15_7) AppleWebKit/537.36 (KHTML, like Gecko) Chrome/148.0.0.0 Safari/537.36",desktop,Chrome,148.0.0.0,OS X,10_15_7,null,"en-US,en;q=0.9,ru-RU;q=0.8,ru;q=0.7",p_1781096465926_0odu,1470,956,false,19,male,4,0,null,"<p style=""font-size:60px;color:#fff;margin:0"">+</p>",null,,,,,,,,,,,,,,,,,,,,
,,,,,html-keyboard-response,65,132076,0.0-65.0,24,1,2026-06-10 13:01:04,fac33314ff793864f6ca77dbc392f4f8,109.122.201.136,"Mozilla/5.0 (Macintosh; Intel Mac OS X 10_15_7) AppleWebKit/537.36 (KHTML, like Gecko) Chrome/148.0.0.0 Safari/537.36",desktop,Chrome,148.0.0.0,OS X,10_15_7,null,"en-US,en;q=0.9,ru-RU;q=0.8,ru;q=0.7",p_1781096465926_0odu,1470,956,false,19,male,4,0,null,"<div style=""text-align:center""><p style=""color:#fff;font-size:18px;margin-bottom:12px"">Запомните это лицо</p><img src=""real_010.png"" style=""width:256px;height:256px;object-fit:contain;border:3px solid #fff;border-radius:4px;background:#808080""></div>",null,,,,,,,,,,,,,,,,,,,,
,,,,,html-keyboard-response,66,132578,0.0-66.0,24,1,2026-06-10 13:01:04,fac33314ff793864f6ca77dbc392f4f8,109.122.201.136,"Mozilla/5.0 (Macintosh; Intel Mac OS X 10_15_7) AppleWebKit/537.36 (KHTML, like Gecko) Chrome/148.0.0.0 Safari/537.36",desktop,Chrome,148.0.0.0,OS X,10_15_7,null,"en-US,en;q=0.9,ru-RU;q=0.8,ru;q=0.7",p_1781096465926_0odu,1470,956,false,19,male,4,0,null,"<p style=""color:#808080;font-size:1px"">.</p>",null,,,,,,,,,,,,,,,,,,,,
,,,,,html-keyboard-response,67,134861,0.0-67.0,24,1,2026-06-10 13:01:04,fac33314ff793864f6ca77dbc392f4f8,109.122.201.136,"Mozilla/5.0 (Macintosh; Intel Mac OS X 10_15_7) AppleWebKit/537.36 (KHTML, like Gecko) Chrome/148.0.0.0 Safari/537.36",desktop,Chrome,148.0.0.0,OS X,10_15_7,null,"en-US,en;q=0.9,ru-RU;q=0.8,ru;q=0.7",p_1781096465926_0odu,1470,956,false,19,male,4,0,2282,"<div style=""text-align:center""><img src=""ff_v4_020.png"" style=""max-width:90vw;max-height:72vh;display:block;margin:0 auto""><p style=""color:#fff;font-size:18px;margin-top:16px"">Было ли запомненное лицо в наборе?</p><div class=""keys"" style=""margin-top:12px""><div class=""key"">←<span>НЕ БЫЛО</span></div><div class=""key"">→<span>БЫЛО</span></div></div></div>",arrowleft,true,ff_020,face_face,real,8,false,real_010.png,ff_v4_020.png,,arrowleft,1,false,false,true,68,,,,,
,,,,,html-keyboard-response,68,135362,0.0-68.0,24,1,2026-06-10 13:01:04,fac33314ff793864f6ca77dbc392f4f8,109.122.201.136,"Mozilla/5.0 (Macintosh; Intel Mac OS X 10_15_7) AppleWebKit/537.36 (KHTML, like Gecko) Chrome/148.0.0.0 Safari/537.36",desktop,Chrome,148.0.0.0,OS X,10_15_7,null,"en-US,en;q=0.9,ru-RU;q=0.8,ru;q=0.7",p_1781096465926_0odu,1470,956,false,19,male,4,0,null,"<p style=""color:#808080;font-size:1px"">.</p>",null,,,,,,,,,,,,,,,,,,,,
,,,,,html-keyboard-response,69,135864,0.0-69.0,24,1,2026-06-10 13:01:04,fac33314ff793864f6ca77dbc392f4f8,109.122.201.136,"Mozilla/5.0 (Macintosh; Intel Mac OS X 10_15_7) AppleWebKit/537.36 (KHTML, like Gecko) Chrome/148.0.0.0 Safari/537.36",desktop,Chrome,148.0.0.0,OS X,10_15_7,null,"en-US,en;q=0.9,ru-RU;q=0.8,ru;q=0.7",p_1781096465926_0odu,1470,956,false,19,male,4,0,null,"<p style=""font-size:60px;color:#fff;margin:0"">+</p>",null,,,,,,,,,,,,,,,,,,,,
,,,,,html-keyboard-response,70,137366,0.0-70.0,24,1,2026-06-10 13:01:04,fac33314ff793864f6ca77dbc392f4f8,109.122.201.136,"Mozilla/5.0 (Macintosh; Intel Mac OS X 10_15_7) AppleWebKit/537.36 (KHTML, like Gecko) Chrome/148.0.0.0 Safari/537.36",desktop,Chrome,148.0.0.0,OS X,10_15_7,null,"en-US,en;q=0.9,ru-RU;q=0.8,ru;q=0.7",p_1781096465926_0odu,1470,956,false,19,male,4,0,null,"<div style=""text-align:center""><p style=""color:#fff;font-size:18px;margin-bottom:12px"">Запомните это лицо</p><img src=""ai_006.png"" style=""width:256px;height:256px;object-fit:contain;border:3px solid #fff;border-radius:4px;background:#808080""></div>",null,,,,,,,,,,,,,,,,,,,,
,,,,,html-keyboard-response,71,137868,0.0-71.0,24,1,2026-06-10 13:01:04,fac33314ff793864f6ca77dbc392f4f8,109.122.201.136,"Mozilla/5.0 (Macintosh; Intel Mac OS X 10_15_7) AppleWebKit/537.36 (KHTML, like Gecko) Chrome/148.0.0.0 Safari/537.36",desktop,Chrome,148.0.0.0,OS X,10_15_7,null,"en-US,en;q=0.9,ru-RU;q=0.8,ru;q=0.7",p_1781096465926_0odu,1470,956,false,19,male,4,0,null,"<p style=""color:#808080;font-size:1px"">.</p>",null,,,,,,,,,,,,,,,,,,,,
,,,,,html-keyboard-response,72,138994,0.0-72.0,24,1,2026-06-10 13:01:04,fac33314ff793864f6ca77dbc392f4f8,109.122.201.136,"Mozilla/5.0 (Macintosh; Intel Mac OS X 10_15_7) AppleWebKit/537.36 (KHTML, like Gecko) Chrome/148.0.0.0 Safari/537.36",desktop,Chrome,148.0.0.0,OS X,10_15_7,null,"en-US,en;q=0.9,ru-RU;q=0.8,ru;q=0.7",p_1781096465926_0odu,1470,956,false,19,male,4,0,1125,"<div style=""text-align:center""><img src=""ff_v4_021.png"" style=""max-width:90vw;max-height:72vh;display:block;margin:0 auto""><p style=""color:#fff;font-size:18px;margin-top:16px"">Было ли запомненное лицо в наборе?</p><div class=""keys"" style=""margin-top:12px""><div class=""key"">←<span>НЕ БЫЛО</span></div><div class=""key"">→<span>БЫЛО</span></div></div></div>",arrowleft,true,ff_021,face_face,ai,4,false,ai_006.png,ff_v4_021.png,,arrowleft,1,false,false,true,73,,,,,
,,,,,html-keyboard-response,73,139495,0.0-73.0,24,1,2026-06-10 13:01:04,fac33314ff793864f6ca77dbc392f4f8,109.122.201.136,"Mozilla/5.0 (Macintosh; Intel Mac OS X 10_15_7) AppleWebKit/537.36 (KHTML, like Gecko) Chrome/148.0.0.0 Safari/537.36",desktop,Chrome,148.0.0.0,OS X,10_15_7,null,"en-US,en;q=0.9,ru-RU;q=0.8,ru;q=0.7",p_1781096465926_0odu,1470,956,false,19,male,4,0,null,"<p style=""color:#808080;font-size:1px"">.</p>",null,,,,,,,,,,,,,,,,,,,,
,,,,,html-keyboard-response,74,139997,0.0-74.0,24,1,2026-06-10 13:01:04,fac33314ff793864f6ca77dbc392f4f8,109.122.201.136,"Mozilla/5.0 (Macintosh; Intel Mac OS X 10_15_7) AppleWebKit/537.36 (KHTML, like Gecko) Chrome/148.0.0.0 Safari/537.36",desktop,Chrome,148.0.0.0,OS X,10_15_7,null,"en-US,en;q=0.9,ru-RU;q=0.8,ru;q=0.7",p_1781096465926_0odu,1470,956,false,19,male,4,0,null,"<p style=""font-size:60px;color:#fff;margin:0"">+</p>",null,,,,,,,,,,,,,,,,,,,,
,,,,,html-keyboard-response,75,141500,0.0-75.0,24,1,2026-06-10 13:01:04,fac33314ff793864f6ca77dbc392f4f8,109.122.201.136,"Mozilla/5.0 (Macintosh; Intel Mac OS X 10_15_7) AppleWebKit/537.36 (KHTML, like Gecko) Chrome/148.0.0.0 Safari/537.36",desktop,Chrome,148.0.0.0,OS X,10_15_7,null,"en-US,en;q=0.9,ru-RU;q=0.8,ru;q=0.7",p_1781096465926_0odu,1470,956,false,19,male,4,0,null,"<div style=""text-align:center""><p style=""color:#fff;font-size:18px;margin-bottom:12px"">Запомните это лицо</p><img src=""ai_002.png"" style=""width:256px;height:256px;object-fit:contain;border:3px solid #fff;border-radius:4px;background:#808080""></div>",null,,,,,,,,,,,,,,,,,,,,
,,,,,html-keyboard-response,76,142002,0.0-76.0,24,1,2026-06-10 13:01:04,fac33314ff793864f6ca77dbc392f4f8,109.122.201.136,"Mozilla/5.0 (Macintosh; Intel Mac OS X 10_15_7) AppleWebKit/537.36 (KHTML, like Gecko) Chrome/148.0.0.0 Safari/537.36",desktop,Chrome,148.0.0.0,OS X,10_15_7,null,"en-US,en;q=0.9,ru-RU;q=0.8,ru;q=0.7",p_1781096465926_0odu,1470,956,false,19,male,4,0,null,"<p style=""color:#808080;font-size:1px"">.</p>",null,,,,,,,,,,,,,,,,,,,,
,,,,,html-keyboard-response,77,143398,0.0-77.0,24,1,2026-06-10 13:01:04,fac33314ff793864f6ca77dbc392f4f8,109.122.201.136,"Mozilla/5.0 (Macintosh; Intel Mac OS X 10_15_7) AppleWebKit/537.36 (KHTML, like Gecko) Chrome/148.0.0.0 Safari/537.36",desktop,Chrome,148.0.0.0,OS X,10_15_7,null,"en-US,en;q=0.9,ru-RU;q=0.8,ru;q=0.7",p_1781096465926_0odu,1470,956,false,19,male,4,0,1394,"<div style=""text-align:center""><img src=""ff_v4_037.png"" style=""max-width:90vw;max-height:72vh;display:block;margin:0 auto""><p style=""color:#fff;font-size:18px;margin-top:16px"">Было ли запомненное лицо в наборе?</p><div class=""keys"" style=""margin-top:12px""><div class=""key"">←<span>НЕ БЫЛО</span></div><div class=""key"">→<span>БЫЛО</span></div></div></div>",arrowleft,true,ff_037,face_face,ai,4,false,ai_002.png,ff_v4_037.png,,arrowleft,1,false,false,true,78,,,,,
,,,,,html-keyboard-response,78,143899,0.0-78.0,24,1,2026-06-10 13:01:04,fac33314ff793864f6ca77dbc392f4f8,109.122.201.136,"Mozilla/5.0 (Macintosh; Intel Mac OS X 10_15_7) AppleWebKit/537.36 (KHTML, like Gecko) Chrome/148.0.0.0 Safari/537.36",desktop,Chrome,148.0.0.0,OS X,10_15_7,null,"en-US,en;q=0.9,ru-RU;q=0.8,ru;q=0.7",p_1781096465926_0odu,1470,956,false,19,male,4,0,null,"<p style=""color:#808080;font-size:1px"">.</p>",null,,,,,,,,,,,,,,,,,,,,
,,,,,html-keyboard-response,79,144401,0.0-79.0,24,1,2026-06-10 13:01:04,fac33314ff793864f6ca77dbc392f4f8,109.122.201.136,"Mozilla/5.0 (Macintosh; Intel Mac OS X 10_15_7) AppleWebKit/537.36 (KHTML, like Gecko) Chrome/148.0.0.0 Safari/537.36",desktop,Chrome,148.0.0.0,OS X,10_15_7,null,"en-US,en;q=0.9,ru-RU;q=0.8,ru;q=0.7",p_1781096465926_0odu,1470,956,false,19,male,4,0,null,"<p style=""font-size:60px;color:#fff;margin:0"">+</p>",null,,,,,,,,,,,,,,,,,,,,
,,,,,html-keyboard-response,80,145904,0.0-80.0,24,1,2026-06-10 13:01:04,fac33314ff793864f6ca77dbc392f4f8,109.122.201.136,"Mozilla/5.0 (Macintosh; Intel Mac OS X 10_15_7) AppleWebKit/537.36 (KHTML, like Gecko) Chrome/148.0.0.0 Safari/537.36",desktop,Chrome,148.0.0.0,OS X,10_15_7,null,"en-US,en;q=0.9,ru-RU;q=0.8,ru;q=0.7",p_1781096465926_0odu,1470,956,false,19,male,4,0,null,"<div style=""text-align:center""><p style=""color:#fff;font-size:18px;margin-bottom:12px"">Запомните это лицо</p><img src=""ai_005.png"" style=""width:256px;height:256px;object-fit:contain;border:3px solid #fff;border-radius:4px;background:#808080""></div>",null,,,,,,,,,,,,,,,,,,,,
,,,,,html-keyboard-response,81,146407,0.0-81.0,24,1,2026-06-10 13:01:04,fac33314ff793864f6ca77dbc392f4f8,109.122.201.136,"Mozilla/5.0 (Macintosh; Intel Mac OS X 10_15_7) AppleWebKit/537.36 (KHTML, like Gecko) Chrome/148.0.0.0 Safari/537.36",desktop,Chrome,148.0.0.0,OS X,10_15_7,null,"en-US,en;q=0.9,ru-RU;q=0.8,ru;q=0.7",p_1781096465926_0odu,1470,956,false,19,male,4,0,null,"<p style=""color:#808080;font-size:1px"">.</p>",null,,,,,,,,,,,,,,,,,,,,
,,,,,html-keyboard-response,82,147374,0.0-82.0,24,1,2026-06-10 13:01:04,fac33314ff793864f6ca77dbc392f4f8,109.122.201.136,"Mozilla/5.0 (Macintosh; Intel Mac OS X 10_15_7) AppleWebKit/537.36 (KHTML, like Gecko) Chrome/148.0.0.0 Safari/537.36",desktop,Chrome,148.0.0.0,OS X,10_15_7,null,"en-US,en;q=0.9,ru-RU;q=0.8,ru;q=0.7",p_1781096465926_0odu,1470,956,false,19,male,4,0,966,"<div style=""text-align:center""><img src=""ff_v4_011.png"" style=""max-width:90vw;max-height:72vh;display:block;margin:0 auto""><p style=""color:#fff;font-size:18px;margin-top:16px"">Было ли запомненное лицо в наборе?</p><div class=""keys"" style=""margin-top:12px""><div class=""key"">←<span>НЕ БЫЛО</span></div><div class=""key"">→<span>БЫЛО</span></div></div></div>",arrowright,true,ff_011,face_face,ai,8,true,ai_005.png,ff_v4_011.png,6,arrowright,1,false,false,true,83,,,,,
,,,,,html-keyboard-response,83,147875,0.0-83.0,24,1,2026-06-10 13:01:04,fac33314ff793864f6ca77dbc392f4f8,109.122.201.136,"Mozilla/5.0 (Macintosh; Intel Mac OS X 10_15_7) AppleWebKit/537.36 (KHTML, like Gecko) Chrome/148.0.0.0 Safari/537.36",desktop,Chrome,148.0.0.0,OS X,10_15_7,null,"en-US,en;q=0.9,ru-RU;q=0.8,ru;q=0.7",p_1781096465926_0odu,1470,956,false,19,male,4,0,null,"<p style=""color:#808080;font-size:1px"">.</p>",null,,,,,,,,,,,,,,,,,,,,
,,,,,html-keyboard-response,84,148377,0.0-84.0,24,1,2026-06-10 13:01:04,fac33314ff793864f6ca77dbc392f4f8,109.122.201.136,"Mozilla/5.0 (Macintosh; Intel Mac OS X 10_15_7) AppleWebKit/537.36 (KHTML, like Gecko) Chrome/148.0.0.0 Safari/537.36",desktop,Chrome,148.0.0.0,OS X,10_15_7,null,"en-US,en;q=0.9,ru-RU;q=0.8,ru;q=0.7",p_1781096465926_0odu,1470,956,false,19,male,4,0,null,"<p style=""font-size:60px;color:#fff;margin:0"">+</p>",null,,,,,,,,,,,,,,,,,,,,
,,,,,html-keyboard-response,85,149879,0.0-85.0,24,1,2026-06-10 13:01:04,fac33314ff793864f6ca77dbc392f4f8,109.122.201.136,"Mozilla/5.0 (Macintosh; Intel Mac OS X 10_15_7) AppleWebKit/537.36 (KHTML, like Gecko) Chrome/148.0.0.0 Safari/537.36",desktop,Chrome,148.0.0.0,OS X,10_15_7,null,"en-US,en;q=0.9,ru-RU;q=0.8,ru;q=0.7",p_1781096465926_0odu,1470,956,false,19,male,4,0,null,"<div style=""text-align:center""><p style=""color:#fff;font-size:18px;margin-bottom:12px"">Запомните это лицо</p><img src=""real_010.png"" style=""width:256px;height:256px;object-fit:contain;border:3px solid #fff;border-radius:4px;background:#808080""></div>",null,,,,,,,,,,,,,,,,,,,,
,,,,,html-keyboard-response,86,150381,0.0-86.0,24,1,2026-06-10 13:01:04,fac33314ff793864f6ca77dbc392f4f8,109.122.201.136,"Mozilla/5.0 (Macintosh; Intel Mac OS X 10_15_7) AppleWebKit/537.36 (KHTML, like Gecko) Chrome/148.0.0.0 Safari/537.36",desktop,Chrome,148.0.0.0,OS X,10_15_7,null,"en-US,en;q=0.9,ru-RU;q=0.8,ru;q=0.7",p_1781096465926_0odu,1470,956,false,19,male,4,0,null,"<p style=""color:#808080;font-size:1px"">.</p>",null,,,,,,,,,,,,,,,,,,,,
,,,,,html-keyboard-response,87,151485,0.0-87.0,24,1,2026-06-10 13:01:04,fac33314ff793864f6ca77dbc392f4f8,109.122.201.136,"Mozilla/5.0 (Macintosh; Intel Mac OS X 10_15_7) AppleWebKit/537.36 (KHTML, like Gecko) Chrome/148.0.0.0 Safari/537.36",desktop,Chrome,148.0.0.0,OS X,10_15_7,null,"en-US,en;q=0.9,ru-RU;q=0.8,ru;q=0.7",p_1781096465926_0odu,1470,956,false,19,male,4,0,1103,"<div style=""text-align:center""><img src=""ff_v4_024.png"" style=""max-width:90vw;max-height:72vh;display:block;margin:0 auto""><p style=""color:#fff;font-size:18px;margin-top:16px"">Было ли запомненное лицо в наборе?</p><div class=""keys"" style=""margin-top:12px""><div class=""key"">←<span>НЕ БЫЛО</span></div><div class=""key"">→<span>БЫЛО</span></div></div></div>",arrowleft,true,ff_024,face_face,real,4,false,real_010.png,ff_v4_024.png,,arrowleft,1,false,false,true,88,,,,,
,,,,,html-keyboard-response,88,151987,0.0-88.0,24,1,2026-06-10 13:01:04,fac33314ff793864f6ca77dbc392f4f8,109.122.201.136,"Mozilla/5.0 (Macintosh; Intel Mac OS X 10_15_7) AppleWebKit/537.36 (KHTML, like Gecko) Chrome/148.0.0.0 Safari/537.36",desktop,Chrome,148.0.0.0,OS X,10_15_7,null,"en-US,en;q=0.9,ru-RU;q=0.8,ru;q=0.7",p_1781096465926_0odu,1470,956,false,19,male,4,0,null,"<p style=""color:#808080;font-size:1px"">.</p>",null,,,,,,,,,,,,,,,,,,,,
,,,,,html-keyboard-response,89,152489,0.0-89.0,24,1,2026-06-10 13:01:04,fac33314ff793864f6ca77dbc392f4f8,109.122.201.136,"Mozilla/5.0 (Macintosh; Intel Mac OS X 10_15_7) AppleWebKit/537.36 (KHTML, like Gecko) Chrome/148.0.0.0 Safari/537.36",desktop,Chrome,148.0.0.0,OS X,10_15_7,null,"en-US,en;q=0.9,ru-RU;q=0.8,ru;q=0.7",p_1781096465926_0odu,1470,956,false,19,male,4,0,null,"<p style=""font-size:60px;color:#fff;margin:0"">+</p>",null,,,,,,,,,,,,,,,,,,,,
,,,,,html-keyboard-response,90,153992,0.0-90.0,24,1,2026-06-10 13:01:04,fac33314ff793864f6ca77dbc392f4f8,109.122.201.136,"Mozilla/5.0 (Macintosh; Intel Mac OS X 10_15_7) AppleWebKit/537.36 (KHTML, like Gecko) Chrome/148.0.0.0 Safari/537.36",desktop,Chrome,148.0.0.0,OS X,10_15_7,null,"en-US,en;q=0.9,ru-RU;q=0.8,ru;q=0.7",p_1781096465926_0odu,1470,956,false,19,male,4,0,null,"<div style=""text-align:center""><p style=""color:#fff;font-size:18px;margin-bottom:12px"">Запомните это лицо</p><img src=""real_015.png"" style=""width:256px;height:256px;object-fit:contain;border:3px solid #fff;border-radius:4px;background:#808080""></div>",null,,,,,,,,,,,,,,,,,,,,
,,,,,html-keyboard-response,91,154493,0.0-91.0,24,1,2026-06-10 13:01:04,fac33314ff793864f6ca77dbc392f4f8,109.122.201.136,"Mozilla/5.0 (Macintosh; Intel Mac OS X 10_15_7) AppleWebKit/537.36 (KHTML, like Gecko) Chrome/148.0.0.0 Safari/537.36",desktop,Chrome,148.0.0.0,OS X,10_15_7,null,"en-US,en;q=0.9,ru-RU;q=0.8,ru;q=0.7",p_1781096465926_0odu,1470,956,false,19,male,4,0,null,"<p style=""color:#808080;font-size:1px"">.</p>",null,,,,,,,,,,,,,,,,,,,,
,,,,,html-keyboard-response,92,155788,0.0-92.0,24,1,2026-06-10 13:01:04,fac33314ff793864f6ca77dbc392f4f8,109.122.201.136,"Mozilla/5.0 (Macintosh; Intel Mac OS X 10_15_7) AppleWebKit/537.36 (KHTML, like Gecko) Chrome/148.0.0.0 Safari/537.36",desktop,Chrome,148.0.0.0,OS X,10_15_7,null,"en-US,en;q=0.9,ru-RU;q=0.8,ru;q=0.7",p_1781096465926_0odu,1470,956,false,19,male,4,0,1294,"<div style=""text-align:center""><img src=""ff_v4_004.png"" style=""max-width:90vw;max-height:72vh;display:block;margin:0 auto""><p style=""color:#fff;font-size:18px;margin-top:16px"">Было ли запомненное лицо в наборе?</p><div class=""keys"" style=""margin-top:12px""><div class=""key"">←<span>НЕ БЫЛО</span></div><div class=""key"">→<span>БЫЛО</span></div></div></div>",arrowright,true,ff_004,face_face,real,4,true,real_015.png,ff_v4_004.png,4,arrowright,1,false,false,true,93,,,,,
,,,,,html-keyboard-response,93,156289,0.0-93.0,24,1,2026-06-10 13:01:04,fac33314ff793864f6ca77dbc392f4f8,109.122.201.136,"Mozilla/5.0 (Macintosh; Intel Mac OS X 10_15_7) AppleWebKit/537.36 (KHTML, like Gecko) Chrome/148.0.0.0 Safari/537.36",desktop,Chrome,148.0.0.0,OS X,10_15_7,null,"en-US,en;q=0.9,ru-RU;q=0.8,ru;q=0.7",p_1781096465926_0odu,1470,956,false,19,male,4,0,null,"<p style=""color:#808080;font-size:1px"">.</p>",null,,,,,,,,,,,,,,,,,,,,
,,,,,html-keyboard-response,94,156791,0.0-94.0,24,1,2026-06-10 13:01:04,fac33314ff793864f6ca77dbc392f4f8,109.122.201.136,"Mozilla/5.0 (Macintosh; Intel Mac OS X 10_15_7) AppleWebKit/537.36 (KHTML, like Gecko) Chrome/148.0.0.0 Safari/537.36",desktop,Chrome,148.0.0.0,OS X,10_15_7,null,"en-US,en;q=0.9,ru-RU;q=0.8,ru;q=0.7",p_1781096465926_0odu,1470,956,false,19,male,4,0,null,"<p style=""font-size:60px;color:#fff;margin:0"">+</p>",null,,,,,,,,,,,,,,,,,,,,
,,,,,html-keyboard-response,95,158293,0.0-95.0,24,1,2026-06-10 13:01:04,fac33314ff793864f6ca77dbc392f4f8,109.122.201.136,"Mozilla/5.0 (Macintosh; Intel Mac OS X 10_15_7) AppleWebKit/537.36 (KHTML, like Gecko) Chrome/148.0.0.0 Safari/537.36",desktop,Chrome,148.0.0.0,OS X,10_15_7,null,"en-US,en;q=0.9,ru-RU;q=0.8,ru;q=0.7",p_1781096465926_0odu,1470,956,false,19,male,4,0,null,"<div style=""text-align:center""><p style=""color:#fff;font-size:18px;margin-bottom:12px"">Запомните это лицо</p><img src=""ai_008.png"" style=""width:256px;height:256px;object-fit:contain;border:3px solid #fff;border-radius:4px;background:#808080""></div>",null,,,,,,,,,,,,,,,,,,,,
,,,,,html-keyboard-response,96,158796,0.0-96.0,24,1,2026-06-10 13:01:04,fac33314ff793864f6ca77dbc392f4f8,109.122.201.136,"Mozilla/5.0 (Macintosh; Intel Mac OS X 10_15_7) AppleWebKit/537.36 (KHTML, like Gecko) Chrome/148.0.0.0 Safari/537.36",desktop,Chrome,148.0.0.0,OS X,10_15_7,null,"en-US,en;q=0.9,ru-RU;q=0.8,ru;q=0.7",p_1781096465926_0odu,1470,956,false,19,male,4,0,null,"<p style=""color:#808080;font-size:1px"">.</p>",null,,,,,,,,,,,,,,,,,,,,
,,,,,html-keyboard-response,97,161060,0.0-97.0,24,1,2026-06-10 13:01:04,fac33314ff793864f6ca77dbc392f4f8,109.122.201.136,"Mozilla/5.0 (Macintosh; Intel Mac OS X 10_15_7) AppleWebKit/537.36 (KHTML, like Gecko) Chrome/148.0.0.0 Safari/537.36",desktop,Chrome,148.0.0.0,OS X,10_15_7,null,"en-US,en;q=0.9,ru-RU;q=0.8,ru;q=0.7",p_1781096465926_0odu,1470,956,false,19,male,4,0,2264,"<div style=""text-align:center""><img src=""ff_v4_014.png"" style=""max-width:90vw;max-height:72vh;display:block;margin:0 auto""><p style=""color:#fff;font-size:18px;margin-top:16px"">Было ли запомненное лицо в наборе?</p><div class=""keys"" style=""margin-top:12px""><div class=""key"">←<span>НЕ БЫЛО</span></div><div class=""key"">→<span>БЫЛО</span></div></div></div>",arrowleft,true,ff_014,face_face,ai,8,true,ai_008.png,ff_v4_014.png,8,arrowright,1,false,false,false,98,,,,,
,,,,,html-keyboard-response,98,161562,0.0-98.0,24,1,2026-06-10 13:01:04,fac33314ff793864f6ca77dbc392f4f8,109.122.201.136,"Mozilla/5.0 (Macintosh; Intel Mac OS X 10_15_7) AppleWebKit/537.36 (KHTML, like Gecko) Chrome/148.0.0.0 Safari/537.36",desktop,Chrome,148.0.0.0,OS X,10_15_7,null,"en-US,en;q=0.9,ru-RU;q=0.8,ru;q=0.7",p_1781096465926_0odu,1470,956,false,19,male,4,0,null,"<p style=""color:#808080;font-size:1px"">.</p>",null,,,,,,,,,,,,,,,,,,,,
,,,,,html-keyboard-response,99,162064,0.0-99.0,24,1,2026-06-10 13:01:04,fac33314ff793864f6ca77dbc392f4f8,109.122.201.136,"Mozilla/5.0 (Macintosh; Intel Mac OS X 10_15_7) AppleWebKit/537.36 (KHTML, like Gecko) Chrome/148.0.0.0 Safari/537.36",desktop,Chrome,148.0.0.0,OS X,10_15_7,null,"en-US,en;q=0.9,ru-RU;q=0.8,ru;q=0.7",p_1781096465926_0odu,1470,956,false,19,male,4,0,null,"<p style=""font-size:60px;color:#fff;margin:0"">+</p>",null,,,,,,,,,,,,,,,,,,,,
,,,,,html-keyboard-response,100,163566,0.0-100.0,24,1,2026-06-10 13:01:04,fac33314ff793864f6ca77dbc392f4f8,109.122.201.136,"Mozilla/5.0 (Macintosh; Intel Mac OS X 10_15_7) AppleWebKit/537.36 (KHTML, like Gecko) Chrome/148.0.0.0 Safari/537.36",desktop,Chrome,148.0.0.0,OS X,10_15_7,null,"en-US,en;q=0.9,ru-RU;q=0.8,ru;q=0.7",p_1781096465926_0odu,1470,956,false,19,male,4,0,null,"<div style=""text-align:center""><p style=""color:#fff;font-size:18px;margin-bottom:12px"">Запомните это лицо</p><img src=""ai_005.png"" style=""width:256px;height:256px;object-fit:contain;border:3px solid #fff;border-radius:4px;background:#808080""></div>",null,,,,,,,,,,,,,,,,,,,,
,,,,,html-keyboard-response,101,164067,0.0-101.0,24,1,2026-06-10 13:01:04,fac33314ff793864f6ca77dbc392f4f8,109.122.201.136,"Mozilla/5.0 (Macintosh; Intel Mac OS X 10_15_7) AppleWebKit/537.36 (KHTML, like Gecko) Chrome/148.0.0.0 Safari/537.36",desktop,Chrome,148.0.0.0,OS X,10_15_7,null,"en-US,en;q=0.9,ru-RU;q=0.8,ru;q=0.7",p_1781096465926_0odu,1470,956,false,19,male,4,0,null,"<p style=""color:#808080;font-size:1px"">.</p>",null,,,,,,,,,,,,,,,,,,,,
,,,,,html-keyboard-response,102,165079,0.0-102.0,24,1,2026-06-10 13:01:04,fac33314ff793864f6ca77dbc392f4f8,109.122.201.136,"Mozilla/5.0 (Macintosh; Intel Mac OS X 10_15_7) AppleWebKit/537.36 (KHTML, like Gecko) Chrome/148.0.0.0 Safari/537.36",desktop,Chrome,148.0.0.0,OS X,10_15_7,null,"en-US,en;q=0.9,ru-RU;q=0.8,ru;q=0.7",p_1781096465926_0odu,1470,956,false,19,male,4,0,1011,"<div style=""text-align:center""><img src=""ff_v4_026.png"" style=""max-width:90vw;max-height:72vh;display:block;margin:0 auto""><p style=""color:#fff;font-size:18px;margin-top:16px"">Было ли запомненное лицо в наборе?</p><div class=""keys"" style=""margin-top:12px""><div class=""key"">←<span>НЕ БЫЛО</span></div><div class=""key"">→<span>БЫЛО</span></div></div></div>",arrowright,true,ff_026,face_face,ai,4,true,ai_005.png,ff_v4_026.png,4,arrowright,1,false,false,true,103,,,,,
,,,,,html-keyboard-response,103,165581,0.0-103.0,24,1,2026-06-10 13:01:04,fac33314ff793864f6ca77dbc392f4f8,109.122.201.136,"Mozilla/5.0 (Macintosh; Intel Mac OS X 10_15_7) AppleWebKit/537.36 (KHTML, like Gecko) Chrome/148.0.0.0 Safari/537.36",desktop,Chrome,148.0.0.0,OS X,10_15_7,null,"en-US,en;q=0.9,ru-RU;q=0.8,ru;q=0.7",p_1781096465926_0odu,1470,956,false,19,male,4,0,null,"<p style=""color:#808080;font-size:1px"">.</p>",null,,,,,,,,,,,,,,,,,,,,
,,,,,html-keyboard-response,104,166083,0.0-104.0,24,1,2026-06-10 13:01:04,fac33314ff793864f6ca77dbc392f4f8,109.122.201.136,"Mozilla/5.0 (Macintosh; Intel Mac OS X 10_15_7) AppleWebKit/537.36 (KHTML, like Gecko) Chrome/148.0.0.0 Safari/537.36",desktop,Chrome,148.0.0.0,OS X,10_15_7,null,"en-US,en;q=0.9,ru-RU;q=0.8,ru;q=0.7",p_1781096465926_0odu,1470,956,false,19,male,4,0,null,"<p style=""font-size:60px;color:#fff;margin:0"">+</p>",null,,,,,,,,,,,,,,,,,,,,
,,,,,html-keyboard-response,105,167585,0.0-105.0,24,1,2026-06-10 13:01:04,fac33314ff793864f6ca77dbc392f4f8,109.122.201.136,"Mozilla/5.0 (Macintosh; Intel Mac OS X 10_15_7) AppleWebKit/537.36 (KHTML, like Gecko) Chrome/148.0.0.0 Safari/537.36",desktop,Chrome,148.0.0.0,OS X,10_15_7,null,"en-US,en;q=0.9,ru-RU;q=0.8,ru;q=0.7",p_1781096465926_0odu,1470,956,false,19,male,4,0,null,"<div style=""text-align:center""><p style=""color:#fff;font-size:18px;margin-bottom:12px"">Запомните это лицо</p><img src=""real_003.png"" style=""width:256px;height:256px;object-fit:contain;border:3px solid #fff;border-radius:4px;background:#808080""></div>",null,,,,,,,,,,,,,,,,,,,,
,,,,,html-keyboard-response,106,168088,0.0-106.0,24,1,2026-06-10 13:01:04,fac33314ff793864f6ca77dbc392f4f8,109.122.201.136,"Mozilla/5.0 (Macintosh; Intel Mac OS X 10_15_7) AppleWebKit/537.36 (KHTML, like Gecko) Chrome/148.0.0.0 Safari/537.36",desktop,Chrome,148.0.0.0,OS X,10_15_7,null,"en-US,en;q=0.9,ru-RU;q=0.8,ru;q=0.7",p_1781096465926_0odu,1470,956,false,19,male,4,0,null,"<p style=""color:#808080;font-size:1px"">.</p>",null,,,,,,,,,,,,,,,,,,,,
,,,,,html-keyboard-response,107,168951,0.0-107.0,24,1,2026-06-10 13:01:04,fac33314ff793864f6ca77dbc392f4f8,109.122.201.136,"Mozilla/5.0 (Macintosh; Intel Mac OS X 10_15_7) AppleWebKit/537.36 (KHTML, like Gecko) Chrome/148.0.0.0 Safari/537.36",desktop,Chrome,148.0.0.0,OS X,10_15_7,null,"en-US,en;q=0.9,ru-RU;q=0.8,ru;q=0.7",p_1781096465926_0odu,1470,956,false,19,male,4,0,862,"<div style=""text-align:center""><img src=""ff_v4_015.png"" style=""max-width:90vw;max-height:72vh;display:block;margin:0 auto""><p style=""color:#fff;font-size:18px;margin-top:16px"">Было ли запомненное лицо в наборе?</p><div class=""keys"" style=""margin-top:12px""><div class=""key"">←<span>НЕ БЫЛО</span></div><div class=""key"">→<span>БЫЛО</span></div></div></div>",arrowright,true,ff_015,face_face,real,8,true,real_003.png,ff_v4_015.png,6,arrowright,1,false,false,true,108,,,,,
,,,,,html-keyboard-response,108,169452,0.0-108.0,24,1,2026-06-10 13:01:04,fac33314ff793864f6ca77dbc392f4f8,109.122.201.136,"Mozilla/5.0 (Macintosh; Intel Mac OS X 10_15_7) AppleWebKit/537.36 (KHTML, like Gecko) Chrome/148.0.0.0 Safari/537.36",desktop,Chrome,148.0.0.0,OS X,10_15_7,null,"en-US,en;q=0.9,ru-RU;q=0.8,ru;q=0.7",p_1781096465926_0odu,1470,956,false,19,male,4,0,null,"<p style=""color:#808080;font-size:1px"">.</p>",null,,,,,,,,,,,,,,,,,,,,
,,,,,html-keyboard-response,109,169954,0.0-109.0,24,1,2026-06-10 13:01:04,fac33314ff793864f6ca77dbc392f4f8,109.122.201.136,"Mozilla/5.0 (Macintosh; Intel Mac OS X 10_15_7) AppleWebKit/537.36 (KHTML, like Gecko) Chrome/148.0.0.0 Safari/537.36",desktop,Chrome,148.0.0.0,OS X,10_15_7,null,"en-US,en;q=0.9,ru-RU;q=0.8,ru;q=0.7",p_1781096465926_0odu,1470,956,false,19,male,4,0,null,"<p style=""font-size:60px;color:#fff;margin:0"">+</p>",null,,,,,,,,,,,,,,,,,,,,
,,,,,html-keyboard-response,110,171457,0.0-110.0,24,1,2026-06-10 13:01:04,fac33314ff793864f6ca77dbc392f4f8,109.122.201.136,"Mozilla/5.0 (Macintosh; Intel Mac OS X 10_15_7) AppleWebKit/537.36 (KHTML, like Gecko) Chrome/148.0.0.0 Safari/537.36",desktop,Chrome,148.0.0.0,OS X,10_15_7,null,"en-US,en;q=0.9,ru-RU;q=0.8,ru;q=0.7",p_1781096465926_0odu,1470,956,false,19,male,4,0,null,"<div style=""text-align:center""><p style=""color:#fff;font-size:18px;margin-bottom:12px"">Запомните это лицо</p><img src=""real_033.png"" style=""width:256px;height:256px;object-fit:contain;border:3px solid #fff;border-radius:4px;background:#808080""></div>",null,,,,,,,,,,,,,,,,,,,,
,,,,,html-keyboard-response,111,171959,0.0-111.0,24,1,2026-06-10 13:01:04,fac33314ff793864f6ca77dbc392f4f8,109.122.201.136,"Mozilla/5.0 (Macintosh; Intel Mac OS X 10_15_7) AppleWebKit/537.36 (KHTML, like Gecko) Chrome/148.0.0.0 Safari/537.36",desktop,Chrome,148.0.0.0,OS X,10_15_7,null,"en-US,en;q=0.9,ru-RU;q=0.8,ru;q=0.7",p_1781096465926_0odu,1470,956,false,19,male,4,0,null,"<p style=""color:#808080;font-size:1px"">.</p>",null,,,,,,,,,,,,,,,,,,,,
,,,,,html-keyboard-response,112,173632,0.0-112.0,24,1,2026-06-10 13:01:04,fac33314ff793864f6ca77dbc392f4f8,109.122.201.136,"Mozilla/5.0 (Macintosh; Intel Mac OS X 10_15_7) AppleWebKit/537.36 (KHTML, like Gecko) Chrome/148.0.0.0 Safari/537.36",desktop,Chrome,148.0.0.0,OS X,10_15_7,null,"en-US,en;q=0.9,ru-RU;q=0.8,ru;q=0.7",p_1781096465926_0odu,1470,956,false,19,male,4,0,1671,"<div style=""text-align:center""><img src=""ff_v4_039.png"" style=""max-width:90vw;max-height:72vh;display:block;margin:0 auto""><p style=""color:#fff;font-size:18px;margin-top:16px"">Было ли запомненное лицо в наборе?</p><div class=""keys"" style=""margin-top:12px""><div class=""key"">←<span>НЕ БЫЛО</span></div><div class=""key"">→<span>БЫЛО</span></div></div></div>",arrowright,true,ff_039,face_face,real,8,true,real_033.png,ff_v4_039.png,5,arrowright,1,false,false,true,113,,,,,
,,,,,html-keyboard-response,113,174133,0.0-113.0,24,1,2026-06-10 13:01:04,fac33314ff793864f6ca77dbc392f4f8,109.122.201.136,"Mozilla/5.0 (Macintosh; Intel Mac OS X 10_15_7) AppleWebKit/537.36 (KHTML, like Gecko) Chrome/148.0.0.0 Safari/537.36",desktop,Chrome,148.0.0.0,OS X,10_15_7,null,"en-US,en;q=0.9,ru-RU;q=0.8,ru;q=0.7",p_1781096465926_0odu,1470,956,false,19,male,4,0,null,"<p style=""color:#808080;font-size:1px"">.</p>",null,,,,,,,,,,,,,,,,,,,,
,,,,,html-keyboard-response,114,174635,0.0-114.0,24,1,2026-06-10 13:01:04,fac33314ff793864f6ca77dbc392f4f8,109.122.201.136,"Mozilla/5.0 (Macintosh; Intel Mac OS X 10_15_7) AppleWebKit/537.36 (KHTML, like Gecko) Chrome/148.0.0.0 Safari/537.36",desktop,Chrome,148.0.0.0,OS X,10_15_7,null,"en-US,en;q=0.9,ru-RU;q=0.8,ru;q=0.7",p_1781096465926_0odu,1470,956,false,19,male,4,0,null,"<p style=""font-size:60px;color:#fff;margin:0"">+</p>",null,,,,,,,,,,,,,,,,,,,,
,,,,,html-keyboard-response,115,176138,0.0-115.0,24,1,2026-06-10 13:01:04,fac33314ff793864f6ca77dbc392f4f8,109.122.201.136,"Mozilla/5.0 (Macintosh; Intel Mac OS X 10_15_7) AppleWebKit/537.36 (KHTML, like Gecko) Chrome/148.0.0.0 Safari/537.36",desktop,Chrome,148.0.0.0,OS X,10_15_7,null,"en-US,en;q=0.9,ru-RU;q=0.8,ru;q=0.7",p_1781096465926_0odu,1470,956,false,19,male,4,0,null,"<div style=""text-align:center""><p style=""color:#fff;font-size:18px;margin-bottom:12px"">Запомните это лицо</p><img src=""real_033.png"" style=""width:256px;height:256px;object-fit:contain;border:3px solid #fff;border-radius:4px;background:#808080""></div>",null,,,,,,,,,,,,,,,,,,,,
,,,,,html-keyboard-response,116,176640,0.0-116.0,24,1,2026-06-10 13:01:04,fac33314ff793864f6ca77dbc392f4f8,109.122.201.136,"Mozilla/5.0 (Macintosh; Intel Mac OS X 10_15_7) AppleWebKit/537.36 (KHTML, like Gecko) Chrome/148.0.0.0 Safari/537.36",desktop,Chrome,148.0.0.0,OS X,10_15_7,null,"en-US,en;q=0.9,ru-RU;q=0.8,ru;q=0.7",p_1781096465926_0odu,1470,956,false,19,male,4,0,null,"<p style=""color:#808080;font-size:1px"">.</p>",null,,,,,,,,,,,,,,,,,,,,
,,,,,html-keyboard-response,117,177437,0.0-117.0,24,1,2026-06-10 13:01:04,fac33314ff793864f6ca77dbc392f4f8,109.122.201.136,"Mozilla/5.0 (Macintosh; Intel Mac OS X 10_15_7) AppleWebKit/537.36 (KHTML, like Gecko) Chrome/148.0.0.0 Safari/537.36",desktop,Chrome,148.0.0.0,OS X,10_15_7,null,"en-US,en;q=0.9,ru-RU;q=0.8,ru;q=0.7",p_1781096465926_0odu,1470,956,false,19,male,4,0,797,"<div style=""text-align:center""><img src=""ff_v4_001.png"" style=""max-width:90vw;max-height:72vh;display:block;margin:0 auto""><p style=""color:#fff;font-size:18px;margin-top:16px"">Было ли запомненное лицо в наборе?</p><div class=""keys"" style=""margin-top:12px""><div class=""key"">←<span>НЕ БЫЛО</span></div><div class=""key"">→<span>БЫЛО</span></div></div></div>",arrowright,true,ff_001,face_face,real,4,true,real_033.png,ff_v4_001.png,1,arrowright,1,false,false,true,118,,,,,
,,,,,html-keyboard-response,118,177938,0.0-118.0,24,1,2026-06-10 13:01:04,fac33314ff793864f6ca77dbc392f4f8,109.122.201.136,"Mozilla/5.0 (Macintosh; Intel Mac OS X 10_15_7) AppleWebKit/537.36 (KHTML, like Gecko) Chrome/148.0.0.0 Safari/537.36",desktop,Chrome,148.0.0.0,OS X,10_15_7,null,"en-US,en;q=0.9,ru-RU;q=0.8,ru;q=0.7",p_1781096465926_0odu,1470,956,false,19,male,4,0,null,"<p style=""color:#808080;font-size:1px"">.</p>",null,,,,,,,,,,,,,,,,,,,,
,,,,,html-keyboard-response,119,178440,0.0-119.0,24,1,2026-06-10 13:01:04,fac33314ff793864f6ca77dbc392f4f8,109.122.201.136,"Mozilla/5.0 (Macintosh; Intel Mac OS X 10_15_7) AppleWebKit/537.36 (KHTML, like Gecko) Chrome/148.0.0.0 Safari/537.36",desktop,Chrome,148.0.0.0,OS X,10_15_7,null,"en-US,en;q=0.9,ru-RU;q=0.8,ru;q=0.7",p_1781096465926_0odu,1470,956,false,19,male,4,0,null,"<p style=""font-size:60px;color:#fff;margin:0"">+</p>",null,,,,,,,,,,,,,,,,,,,,
,,,,,html-keyboard-response,120,179942,0.0-120.0,24,1,2026-06-10 13:01:04,fac33314ff793864f6ca77dbc392f4f8,109.122.201.136,"Mozilla/5.0 (Macintosh; Intel Mac OS X 10_15_7) AppleWebKit/537.36 (KHTML, like Gecko) Chrome/148.0.0.0 Safari/537.36",desktop,Chrome,148.0.0.0,OS X,10_15_7,null,"en-US,en;q=0.9,ru-RU;q=0.8,ru;q=0.7",p_1781096465926_0odu,1470,956,false,19,male,4,0,null,"<div style=""text-align:center""><p style=""color:#fff;font-size:18px;margin-bottom:12px"">Запомните это лицо</p><img src=""ai_008.png"" style=""width:256px;height:256px;object-fit:contain;border:3px solid #fff;border-radius:4px;background:#808080""></div>",null,,,,,,,,,,,,,,,,,,,,
,,,,,html-keyboard-response,121,180445,0.0-121.0,24,1,2026-06-10 13:01:04,fac33314ff793864f6ca77dbc392f4f8,109.122.201.136,"Mozilla/5.0 (Macintosh; Intel Mac OS X 10_15_7) AppleWebKit/537.36 (KHTML, like Gecko) Chrome/148.0.0.0 Safari/537.36",desktop,Chrome,148.0.0.0,OS X,10_15_7,null,"en-US,en;q=0.9,ru-RU;q=0.8,ru;q=0.7",p_1781096465926_0odu,1470,956,false,19,male,4,0,null,"<p style=""color:#808080;font-size:1px"">.</p>",null,,,,,,,,,,,,,,,,,,,,
,,,,,html-keyboard-response,122,182244,0.0-122.0,24,1,2026-06-10 13:01:04,fac33314ff793864f6ca77dbc392f4f8,109.122.201.136,"Mozilla/5.0 (Macintosh; Intel Mac OS X 10_15_7) AppleWebKit/537.36 (KHTML, like Gecko) Chrome/148.0.0.0 Safari/537.36",desktop,Chrome,148.0.0.0,OS X,10_15_7,null,"en-US,en;q=0.9,ru-RU;q=0.8,ru;q=0.7",p_1781096465926_0odu,1470,956,false,19,male,4,0,1799,"<div style=""text-align:center""><img src=""ff_v4_019.png"" style=""max-width:90vw;max-height:72vh;display:block;margin:0 auto""><p style=""color:#fff;font-size:18px;margin-top:16px"">Было ли запомненное лицо в наборе?</p><div class=""keys"" style=""margin-top:12px""><div class=""key"">←<span>НЕ БЫЛО</span></div><div class=""key"">→<span>БЫЛО</span></div></div></div>",arrowleft,true,ff_019,face_face,ai,4,false,ai_008.png,ff_v4_019.png,,arrowleft,1,false,false,true,123,,,,,
,,,,,html-keyboard-response,123,182745,0.0-123.0,24,1,2026-06-10 13:01:04,fac33314ff793864f6ca77dbc392f4f8,109.122.201.136,"Mozilla/5.0 (Macintosh; Intel Mac OS X 10_15_7) AppleWebKit/537.36 (KHTML, like Gecko) Chrome/148.0.0.0 Safari/537.36",desktop,Chrome,148.0.0.0,OS X,10_15_7,null,"en-US,en;q=0.9,ru-RU;q=0.8,ru;q=0.7",p_1781096465926_0odu,1470,956,false,19,male,4,0,null,"<p style=""color:#808080;font-size:1px"">.</p>",null,,,,,,,,,,,,,,,,,,,,
,,,,,html-keyboard-response,124,183248,0.0-124.0,24,1,2026-06-10 13:01:04,fac33314ff793864f6ca77dbc392f4f8,109.122.201.136,"Mozilla/5.0 (Macintosh; Intel Mac OS X 10_15_7) AppleWebKit/537.36 (KHTML, like Gecko) Chrome/148.0.0.0 Safari/537.36",desktop,Chrome,148.0.0.0,OS X,10_15_7,null,"en-US,en;q=0.9,ru-RU;q=0.8,ru;q=0.7",p_1781096465926_0odu,1470,956,false,19,male,4,0,null,"<p style=""font-size:60px;color:#fff;margin:0"">+</p>",null,,,,,,,,,,,,,,,,,,,,
,,,,,html-keyboard-response,125,184750,0.0-125.0,24,1,2026-06-10 13:01:04,fac33314ff793864f6ca77dbc392f4f8,109.122.201.136,"Mozilla/5.0 (Macintosh; Intel Mac OS X 10_15_7) AppleWebKit/537.36 (KHTML, like Gecko) Chrome/148.0.0.0 Safari/537.36",desktop,Chrome,148.0.0.0,OS X,10_15_7,null,"en-US,en;q=0.9,ru-RU;q=0.8,ru;q=0.7",p_1781096465926_0odu,1470,956,false,19,male,4,0,null,"<div style=""text-align:center""><p style=""color:#fff;font-size:18px;margin-bottom:12px"">Запомните это лицо</p><img src=""ai_004.png"" style=""width:256px;height:256px;object-fit:contain;border:3px solid #fff;border-radius:4px;background:#808080""></div>",null,,,,,,,,,,,,,,,,,,,,
,,,,,html-keyboard-response,126,185252,0.0-126.0,24,1,2026-06-10 13:01:04,fac33314ff793864f6ca77dbc392f4f8,109.122.201.136,"Mozilla/5.0 (Macintosh; Intel Mac OS X 10_15_7) AppleWebKit/537.36 (KHTML, like Gecko) Chrome/148.0.0.0 Safari/537.36",desktop,Chrome,148.0.0.0,OS X,10_15_7,null,"en-US,en;q=0.9,ru-RU;q=0.8,ru;q=0.7",p_1781096465926_0odu,1470,956,false,19,male,4,0,null,"<p style=""color:#808080;font-size:1px"">.</p>",null,,,,,,,,,,,,,,,,,,,,
,,,,,html-keyboard-response,127,187202,0.0-127.0,24,1,2026-06-10 13:01:04,fac33314ff793864f6ca77dbc392f4f8,109.122.201.136,"Mozilla/5.0 (Macintosh; Intel Mac OS X 10_15_7) AppleWebKit/537.36 (KHTML, like Gecko) Chrome/148.0.0.0 Safari/537.36",desktop,Chrome,148.0.0.0,OS X,10_15_7,null,"en-US,en;q=0.9,ru-RU;q=0.8,ru;q=0.7",p_1781096465926_0odu,1470,956,false,19,male,4,0,1949,"<div style=""text-align:center""><img src=""ff_v4_017.png"" style=""max-width:90vw;max-height:72vh;display:block;margin:0 auto""><p style=""color:#fff;font-size:18px;margin-top:16px"">Было ли запомненное лицо в наборе?</p><div class=""keys"" style=""margin-top:12px""><div class=""key"">←<span>НЕ БЫЛО</span></div><div class=""key"">→<span>БЫЛО</span></div></div></div>",arrowleft,true,ff_017,face_face,ai,8,true,ai_004.png,ff_v4_017.png,7,arrowright,1,false,false,false,128,,,,,
,,,,,html-keyboard-response,128,187703,0.0-128.0,24,1,2026-06-10 13:01:04,fac33314ff793864f6ca77dbc392f4f8,109.122.201.136,"Mozilla/5.0 (Macintosh; Intel Mac OS X 10_15_7) AppleWebKit/537.36 (KHTML, like Gecko) Chrome/148.0.0.0 Safari/537.36",desktop,Chrome,148.0.0.0,OS X,10_15_7,null,"en-US,en;q=0.9,ru-RU;q=0.8,ru;q=0.7",p_1781096465926_0odu,1470,956,false,19,male,4,0,null,"<p style=""color:#808080;font-size:1px"">.</p>",null,,,,,,,,,,,,,,,,,,,,
,,,,,html-keyboard-response,129,188205,0.0-129.0,24,1,2026-06-10 13:01:04,fac33314ff793864f6ca77dbc392f4f8,109.122.201.136,"Mozilla/5.0 (Macintosh; Intel Mac OS X 10_15_7) AppleWebKit/537.36 (KHTML, like Gecko) Chrome/148.0.0.0 Safari/537.36",desktop,Chrome,148.0.0.0,OS X,10_15_7,null,"en-US,en;q=0.9,ru-RU;q=0.8,ru;q=0.7",p_1781096465926_0odu,1470,956,false,19,male,4,0,null,"<p style=""font-size:60px;color:#fff;margin:0"">+</p>",null,,,,,,,,,,,,,,,,,,,,
,,,,,html-keyboard-response,130,189708,0.0-130.0,24,1,2026-06-10 13:01:04,fac33314ff793864f6ca77dbc392f4f8,109.122.201.136,"Mozilla/5.0 (Macintosh; Intel Mac OS X 10_15_7) AppleWebKit/537.36 (KHTML, like Gecko) Chrome/148.0.0.0 Safari/537.36",desktop,Chrome,148.0.0.0,OS X,10_15_7,null,"en-US,en;q=0.9,ru-RU;q=0.8,ru;q=0.7",p_1781096465926_0odu,1470,956,false,19,male,4,0,null,"<div style=""text-align:center""><p style=""color:#fff;font-size:18px;margin-bottom:12px"">Запомните это лицо</p><img src=""real_015.png"" style=""width:256px;height:256px;object-fit:contain;border:3px solid #fff;border-radius:4px;background:#808080""></div>",null,,,,,,,,,,,,,,,,,,,,
,,,,,html-keyboard-response,131,190210,0.0-131.0,24,1,2026-06-10 13:01:04,fac33314ff793864f6ca77dbc392f4f8,109.122.201.136,"Mozilla/5.0 (Macintosh; Intel Mac OS X 10_15_7) AppleWebKit/537.36 (KHTML, like Gecko) Chrome/148.0.0.0 Safari/537.36",desktop,Chrome,148.0.0.0,OS X,10_15_7,null,"en-US,en;q=0.9,ru-RU;q=0.8,ru;q=0.7",p_1781096465926_0odu,1470,956,false,19,male,4,0,null,"<p style=""color:#808080;font-size:1px"">.</p>",null,,,,,,,,,,,,,,,,,,,,
,,,,,html-keyboard-response,132,191528,0.0-132.0,24,1,2026-06-10 13:01:04,fac33314ff793864f6ca77dbc392f4f8,109.122.201.136,"Mozilla/5.0 (Macintosh; Intel Mac OS X 10_15_7) AppleWebKit/537.36 (KHTML, like Gecko) Chrome/148.0.0.0 Safari/537.36",desktop,Chrome,148.0.0.0,OS X,10_15_7,null,"en-US,en;q=0.9,ru-RU;q=0.8,ru;q=0.7",p_1781096465926_0odu,1470,956,false,19,male,4,0,1317,"<div style=""text-align:center""><img src=""ff_v4_028.png"" style=""max-width:90vw;max-height:72vh;display:block;margin:0 auto""><p style=""color:#fff;font-size:18px;margin-top:16px"">Было ли запомненное лицо в наборе?</p><div class=""keys"" style=""margin-top:12px""><div class=""key"">←<span>НЕ БЫЛО</span></div><div class=""key"">→<span>БЫЛО</span></div></div></div>",arrowright,true,ff_028,face_face,real,8,true,real_015.png,ff_v4_028.png,8,arrowright,1,false,false,true,133,,,,,
,,,,,html-keyboard-response,133,192029,0.0-133.0,24,1,2026-06-10 13:01:04,fac33314ff793864f6ca77dbc392f4f8,109.122.201.136,"Mozilla/5.0 (Macintosh; Intel Mac OS X 10_15_7) AppleWebKit/537.36 (KHTML, like Gecko) Chrome/148.0.0.0 Safari/537.36",desktop,Chrome,148.0.0.0,OS X,10_15_7,null,"en-US,en;q=0.9,ru-RU;q=0.8,ru;q=0.7",p_1781096465926_0odu,1470,956,false,19,male,4,0,null,"<p style=""color:#808080;font-size:1px"">.</p>",null,,,,,,,,,,,,,,,,,,,,
,,,,,html-keyboard-response,134,192532,0.0-134.0,24,1,2026-06-10 13:01:04,fac33314ff793864f6ca77dbc392f4f8,109.122.201.136,"Mozilla/5.0 (Macintosh; Intel Mac OS X 10_15_7) AppleWebKit/537.36 (KHTML, like Gecko) Chrome/148.0.0.0 Safari/537.36",desktop,Chrome,148.0.0.0,OS X,10_15_7,null,"en-US,en;q=0.9,ru-RU;q=0.8,ru;q=0.7",p_1781096465926_0odu,1470,956,false,19,male,4,0,null,"<p style=""font-size:60px;color:#fff;margin:0"">+</p>",null,,,,,,,,,,,,,,,,,,,,
,,,,,html-keyboard-response,135,194035,0.0-135.0,24,1,2026-06-10 13:01:04,fac33314ff793864f6ca77dbc392f4f8,109.122.201.136,"Mozilla/5.0 (Macintosh; Intel Mac OS X 10_15_7) AppleWebKit/537.36 (KHTML, like Gecko) Chrome/148.0.0.0 Safari/537.36",desktop,Chrome,148.0.0.0,OS X,10_15_7,null,"en-US,en;q=0.9,ru-RU;q=0.8,ru;q=0.7",p_1781096465926_0odu,1470,956,false,19,male,4,0,null,"<div style=""text-align:center""><p style=""color:#fff;font-size:18px;margin-bottom:12px"">Запомните это лицо</p><img src=""ai_007.png"" style=""width:256px;height:256px;object-fit:contain;border:3px solid #fff;border-radius:4px;background:#808080""></div>",null,,,,,,,,,,,,,,,,,,,,
,,,,,html-keyboard-response,136,194536,0.0-136.0,24,1,2026-06-10 13:01:04,fac33314ff793864f6ca77dbc392f4f8,109.122.201.136,"Mozilla/5.0 (Macintosh; Intel Mac OS X 10_15_7) AppleWebKit/537.36 (KHTML, like Gecko) Chrome/148.0.0.0 Safari/537.36",desktop,Chrome,148.0.0.0,OS X,10_15_7,null,"en-US,en;q=0.9,ru-RU;q=0.8,ru;q=0.7",p_1781096465926_0odu,1470,956,false,19,male,4,0,null,"<p style=""color:#808080;font-size:1px"">.</p>",null,,,,,,,,,,,,,,,,,,,,
,,,,,html-keyboard-response,137,196575,0.0-137.0,24,1,2026-06-10 13:01:04,fac33314ff793864f6ca77dbc392f4f8,109.122.201.136,"Mozilla/5.0 (Macintosh; Intel Mac OS X 10_15_7) AppleWebKit/537.36 (KHTML, like Gecko) Chrome/148.0.0.0 Safari/537.36",desktop,Chrome,148.0.0.0,OS X,10_15_7,null,"en-US,en;q=0.9,ru-RU;q=0.8,ru;q=0.7",p_1781096465926_0odu,1470,956,false,19,male,4,0,2038,"<div style=""text-align:center""><img src=""ff_v4_002.png"" style=""max-width:90vw;max-height:72vh;display:block;margin:0 auto""><p style=""color:#fff;font-size:18px;margin-top:16px"">Было ли запомненное лицо в наборе?</p><div class=""keys"" style=""margin-top:12px""><div class=""key"">←<span>НЕ БЫЛО</span></div><div class=""key"">→<span>БЫЛО</span></div></div></div>",arrowleft,true,ff_002,face_face,ai,8,false,ai_007.png,ff_v4_002.png,,arrowleft,1,false,false,true,138,,,,,
,,,,,html-keyboard-response,138,197077,0.0-138.0,24,1,2026-06-10 13:01:04,fac33314ff793864f6ca77dbc392f4f8,109.122.201.136,"Mozilla/5.0 (Macintosh; Intel Mac OS X 10_15_7) AppleWebKit/537.36 (KHTML, like Gecko) Chrome/148.0.0.0 Safari/537.36",desktop,Chrome,148.0.0.0,OS X,10_15_7,null,"en-US,en;q=0.9,ru-RU;q=0.8,ru;q=0.7",p_1781096465926_0odu,1470,956,false,19,male,4,0,null,"<p style=""color:#808080;font-size:1px"">.</p>",null,,,,,,,,,,,,,,,,,,,,
,,,,,html-keyboard-response,139,197579,0.0-139.0,24,1,2026-06-10 13:01:04,fac33314ff793864f6ca77dbc392f4f8,109.122.201.136,"Mozilla/5.0 (Macintosh; Intel Mac OS X 10_15_7) AppleWebKit/537.36 (KHTML, like Gecko) Chrome/148.0.0.0 Safari/537.36",desktop,Chrome,148.0.0.0,OS X,10_15_7,null,"en-US,en;q=0.9,ru-RU;q=0.8,ru;q=0.7",p_1781096465926_0odu,1470,956,false,19,male,4,0,null,"<p style=""font-size:60px;color:#fff;margin:0"">+</p>",null,,,,,,,,,,,,,,,,,,,,
,,,,,html-keyboard-response,140,199082,0.0-140.0,24,1,2026-06-10 13:01:04,fac33314ff793864f6ca77dbc392f4f8,109.122.201.136,"Mozilla/5.0 (Macintosh; Intel Mac OS X 10_15_7) AppleWebKit/537.36 (KHTML, like Gecko) Chrome/148.0.0.0 Safari/537.36",desktop,Chrome,148.0.0.0,OS X,10_15_7,null,"en-US,en;q=0.9,ru-RU;q=0.8,ru;q=0.7",p_1781096465926_0odu,1470,956,false,19,male,4,0,null,"<div style=""text-align:center""><p style=""color:#fff;font-size:18px;margin-bottom:12px"">Запомните это лицо</p><img src=""real_020.png"" style=""width:256px;height:256px;object-fit:contain;border:3px solid #fff;border-radius:4px;background:#808080""></div>",null,,,,,,,,,,,,,,,,,,,,
,,,,,html-keyboard-response,141,199583,0.0-141.0,24,1,2026-06-10 13:01:04,fac33314ff793864f6ca77dbc392f4f8,109.122.201.136,"Mozilla/5.0 (Macintosh; Intel Mac OS X 10_15_7) AppleWebKit/537.36 (KHTML, like Gecko) Chrome/148.0.0.0 Safari/537.36",desktop,Chrome,148.0.0.0,OS X,10_15_7,null,"en-US,en;q=0.9,ru-RU;q=0.8,ru;q=0.7",p_1781096465926_0odu,1470,956,false,19,male,4,0,null,"<p style=""color:#808080;font-size:1px"">.</p>",null,,,,,,,,,,,,,,,,,,,,
,,,,,html-keyboard-response,142,200579,0.0-142.0,24,1,2026-06-10 13:01:04,fac33314ff793864f6ca77dbc392f4f8,109.122.201.136,"Mozilla/5.0 (Macintosh; Intel Mac OS X 10_15_7) AppleWebKit/537.36 (KHTML, like Gecko) Chrome/148.0.0.0 Safari/537.36",desktop,Chrome,148.0.0.0,OS X,10_15_7,null,"en-US,en;q=0.9,ru-RU;q=0.8,ru;q=0.7",p_1781096465926_0odu,1470,956,false,19,male,4,0,994,"<div style=""text-align:center""><img src=""ff_v4_036.png"" style=""max-width:90vw;max-height:72vh;display:block;margin:0 auto""><p style=""color:#fff;font-size:18px;margin-top:16px"">Было ли запомненное лицо в наборе?</p><div class=""keys"" style=""margin-top:12px""><div class=""key"">←<span>НЕ БЫЛО</span></div><div class=""key"">→<span>БЫЛО</span></div></div></div>",arrowleft,true,ff_036,face_face,real,4,false,real_020.png,ff_v4_036.png,,arrowleft,1,false,false,true,143,,,,,
,,,,,html-keyboard-response,143,201080,0.0-143.0,24,1,2026-06-10 13:01:04,fac33314ff793864f6ca77dbc392f4f8,109.122.201.136,"Mozilla/5.0 (Macintosh; Intel Mac OS X 10_15_7) AppleWebKit/537.36 (KHTML, like Gecko) Chrome/148.0.0.0 Safari/537.36",desktop,Chrome,148.0.0.0,OS X,10_15_7,null,"en-US,en;q=0.9,ru-RU;q=0.8,ru;q=0.7",p_1781096465926_0odu,1470,956,false,19,male,4,0,null,"<p style=""color:#808080;font-size:1px"">.</p>",null,,,,,,,,,,,,,,,,,,,,
,,,,,html-keyboard-response,144,201582,0.0-144.0,24,1,2026-06-10 13:01:04,fac33314ff793864f6ca77dbc392f4f8,109.122.201.136,"Mozilla/5.0 (Macintosh; Intel Mac OS X 10_15_7) AppleWebKit/537.36 (KHTML, like Gecko) Chrome/148.0.0.0 Safari/537.36",desktop,Chrome,148.0.0.0,OS X,10_15_7,null,"en-US,en;q=0.9,ru-RU;q=0.8,ru;q=0.7",p_1781096465926_0odu,1470,956,false,19,male,4,0,null,"<p style=""font-size:60px;color:#fff;margin:0"">+</p>",null,,,,,,,,,,,,,,,,,,,,
,,,,,html-keyboard-response,145,203085,0.0-145.0,24,1,2026-06-10 13:01:04,fac33314ff793864f6ca77dbc392f4f8,109.122.201.136,"Mozilla/5.0 (Macintosh; Intel Mac OS X 10_15_7) AppleWebKit/537.36 (KHTML, like Gecko) Chrome/148.0.0.0 Safari/537.36",desktop,Chrome,148.0.0.0,OS X,10_15_7,null,"en-US,en;q=0.9,ru-RU;q=0.8,ru;q=0.7",p_1781096465926_0odu,1470,956,false,19,male,4,0,null,"<div style=""text-align:center""><p style=""color:#fff;font-size:18px;margin-bottom:12px"">Запомните это лицо</p><img src=""ai_001.png"" style=""width:256px;height:256px;object-fit:contain;border:3px solid #fff;border-radius:4px;background:#808080""></div>",null,,,,,,,,,,,,,,,,,,,,
,,,,,html-keyboard-response,146,203586,0.0-146.0,24,1,2026-06-10 13:01:04,fac33314ff793864f6ca77dbc392f4f8,109.122.201.136,"Mozilla/5.0 (Macintosh; Intel Mac OS X 10_15_7) AppleWebKit/537.36 (KHTML, like Gecko) Chrome/148.0.0.0 Safari/537.36",desktop,Chrome,148.0.0.0,OS X,10_15_7,null,"en-US,en;q=0.9,ru-RU;q=0.8,ru;q=0.7",p_1781096465926_0odu,1470,956,false,19,male,4,0,null,"<p style=""color:#808080;font-size:1px"">.</p>",null,,,,,,,,,,,,,,,,,,,,
,,,,,html-keyboard-response,147,205062,0.0-147.0,24,1,2026-06-10 13:01:04,fac33314ff793864f6ca77dbc392f4f8,109.122.201.136,"Mozilla/5.0 (Macintosh; Intel Mac OS X 10_15_7) AppleWebKit/537.36 (KHTML, like Gecko) Chrome/148.0.0.0 Safari/537.36",desktop,Chrome,148.0.0.0,OS X,10_15_7,null,"en-US,en;q=0.9,ru-RU;q=0.8,ru;q=0.7",p_1781096465926_0odu,1470,956,false,19,male,4,0,1475,"<div style=""text-align:center""><img src=""ff_v4_013.png"" style=""max-width:90vw;max-height:72vh;display:block;margin:0 auto""><p style=""color:#fff;font-size:18px;margin-top:16px"">Было ли запомненное лицо в наборе?</p><div class=""keys"" style=""margin-top:12px""><div class=""key"">←<span>НЕ БЫЛО</span></div><div class=""key"">→<span>БЫЛО</span></div></div></div>",arrowleft,true,ff_013,face_face,ai,4,true,ai_001.png,ff_v4_013.png,2,arrowright,1,false,false,false,148,,,,,
,,,,,html-keyboard-response,148,205563,0.0-148.0,24,1,2026-06-10 13:01:04,fac33314ff793864f6ca77dbc392f4f8,109.122.201.136,"Mozilla/5.0 (Macintosh; Intel Mac OS X 10_15_7) AppleWebKit/537.36 (KHTML, like Gecko) Chrome/148.0.0.0 Safari/537.36",desktop,Chrome,148.0.0.0,OS X,10_15_7,null,"en-US,en;q=0.9,ru-RU;q=0.8,ru;q=0.7",p_1781096465926_0odu,1470,956,false,19,male,4,0,null,"<p style=""color:#808080;font-size:1px"">.</p>",null,,,,,,,,,,,,,,,,,,,,
,,,,,html-keyboard-response,149,206064,0.0-149.0,24,1,2026-06-10 13:01:04,fac33314ff793864f6ca77dbc392f4f8,109.122.201.136,"Mozilla/5.0 (Macintosh; Intel Mac OS X 10_15_7) AppleWebKit/537.36 (KHTML, like Gecko) Chrome/148.0.0.0 Safari/537.36",desktop,Chrome,148.0.0.0,OS X,10_15_7,null,"en-US,en;q=0.9,ru-RU;q=0.8,ru;q=0.7",p_1781096465926_0odu,1470,956,false,19,male,4,0,null,"<p style=""font-size:60px;color:#fff;margin:0"">+</p>",null,,,,,,,,,,,,,,,,,,,,
,,,,,html-keyboard-response,150,207567,0.0-150.0,24,1,2026-06-10 13:01:04,fac33314ff793864f6ca77dbc392f4f8,109.122.201.136,"Mozilla/5.0 (Macintosh; Intel Mac OS X 10_15_7) AppleWebKit/537.36 (KHTML, like Gecko) Chrome/148.0.0.0 Safari/537.36",desktop,Chrome,148.0.0.0,OS X,10_15_7,null,"en-US,en;q=0.9,ru-RU;q=0.8,ru;q=0.7",p_1781096465926_0odu,1470,956,false,19,male,4,0,null,"<div style=""text-align:center""><p style=""color:#fff;font-size:18px;margin-bottom:12px"">Запомните это лицо</p><img src=""ai_004.png"" style=""width:256px;height:256px;object-fit:contain;border:3px solid #fff;border-radius:4px;background:#808080""></div>",null,,,,,,,,,,,,,,,,,,,,
,,,,,html-keyboard-response,151,208069,0.0-151.0,24,1,2026-06-10 13:01:04,fac33314ff793864f6ca77dbc392f4f8,109.122.201.136,"Mozilla/5.0 (Macintosh; Intel Mac OS X 10_15_7) AppleWebKit/537.36 (KHTML, like Gecko) Chrome/148.0.0.0 Safari/537.36",desktop,Chrome,148.0.0.0,OS X,10_15_7,null,"en-US,en;q=0.9,ru-RU;q=0.8,ru;q=0.7",p_1781096465926_0odu,1470,956,false,19,male,4,0,null,"<p style=""color:#808080;font-size:1px"">.</p>",null,,,,,,,,,,,,,,,,,,,,
,,,,,html-keyboard-response,152,208984,0.0-152.0,24,1,2026-06-10 13:01:04,fac33314ff793864f6ca77dbc392f4f8,109.122.201.136,"Mozilla/5.0 (Macintosh; Intel Mac OS X 10_15_7) AppleWebKit/537.36 (KHTML, like Gecko) Chrome/148.0.0.0 Safari/537.36",desktop,Chrome,148.0.0.0,OS X,10_15_7,null,"en-US,en;q=0.9,ru-RU;q=0.8,ru;q=0.7",p_1781096465926_0odu,1470,956,false,19,male,4,0,915,"<div style=""text-align:center""><img src=""ff_v4_016.png"" style=""max-width:90vw;max-height:72vh;display:block;margin:0 auto""><p style=""color:#fff;font-size:18px;margin-top:16px"">Было ли запомненное лицо в наборе?</p><div class=""keys"" style=""margin-top:12px""><div class=""key"">←<span>НЕ БЫЛО</span></div><div class=""key"">→<span>БЫЛО</span></div></div></div>",arrowright,true,ff_016,face_face,ai,4,true,ai_004.png,ff_v4_016.png,3,arrowright,1,false,false,true,153,,,,,
,,,,,html-keyboard-response,153,209486,0.0-153.0,24,1,2026-06-10 13:01:04,fac33314ff793864f6ca77dbc392f4f8,109.122.201.136,"Mozilla/5.0 (Macintosh; Intel Mac OS X 10_15_7) AppleWebKit/537.36 (KHTML, like Gecko) Chrome/148.0.0.0 Safari/537.36",desktop,Chrome,148.0.0.0,OS X,10_15_7,null,"en-US,en;q=0.9,ru-RU;q=0.8,ru;q=0.7",p_1781096465926_0odu,1470,956,false,19,male,4,0,null,"<p style=""color:#808080;font-size:1px"">.</p>",null,,,,,,,,,,,,,,,,,,,,
,,,,,html-keyboard-response,154,209987,0.0-154.0,24,1,2026-06-10 13:01:04,fac33314ff793864f6ca77dbc392f4f8,109.122.201.136,"Mozilla/5.0 (Macintosh; Intel Mac OS X 10_15_7) AppleWebKit/537.36 (KHTML, like Gecko) Chrome/148.0.0.0 Safari/537.36",desktop,Chrome,148.0.0.0,OS X,10_15_7,null,"en-US,en;q=0.9,ru-RU;q=0.8,ru;q=0.7",p_1781096465926_0odu,1470,956,false,19,male,4,0,null,"<p style=""font-size:60px;color:#fff;margin:0"">+</p>",null,,,,,,,,,,,,,,,,,,,,
,,,,,html-keyboard-response,155,211490,0.0-155.0,24,1,2026-06-10 13:01:04,fac33314ff793864f6ca77dbc392f4f8,109.122.201.136,"Mozilla/5.0 (Macintosh; Intel Mac OS X 10_15_7) AppleWebKit/537.36 (KHTML, like Gecko) Chrome/148.0.0.0 Safari/537.36",desktop,Chrome,148.0.0.0,OS X,10_15_7,null,"en-US,en;q=0.9,ru-RU;q=0.8,ru;q=0.7",p_1781096465926_0odu,1470,956,false,19,male,4,0,null,"<div style=""text-align:center""><p style=""color:#fff;font-size:18px;margin-bottom:12px"">Запомните это лицо</p><img src=""real_015.png"" style=""width:256px;height:256px;object-fit:contain;border:3px solid #fff;border-radius:4px;background:#808080""></div>",null,,,,,,,,,,,,,,,,,,,,
,,,,,html-keyboard-response,156,211993,0.0-156.0,24,1,2026-06-10 13:01:04,fac33314ff793864f6ca77dbc392f4f8,109.122.201.136,"Mozilla/5.0 (Macintosh; Intel Mac OS X 10_15_7) AppleWebKit/537.36 (KHTML, like Gecko) Chrome/148.0.0.0 Safari/537.36",desktop,Chrome,148.0.0.0,OS X,10_15_7,null,"en-US,en;q=0.9,ru-RU;q=0.8,ru;q=0.7",p_1781096465926_0odu,1470,956,false,19,male,4,0,null,"<p style=""color:#808080;font-size:1px"">.</p>",null,,,,,,,,,,,,,,,,,,,,
,,,,,html-keyboard-response,157,213698,0.0-157.0,24,1,2026-06-10 13:01:04,fac33314ff793864f6ca77dbc392f4f8,109.122.201.136,"Mozilla/5.0 (Macintosh; Intel Mac OS X 10_15_7) AppleWebKit/537.36 (KHTML, like Gecko) Chrome/148.0.0.0 Safari/537.36",desktop,Chrome,148.0.0.0,OS X,10_15_7,null,"en-US,en;q=0.9,ru-RU;q=0.8,ru;q=0.7",p_1781096465926_0odu,1470,956,false,19,male,4,0,1705,"<div style=""text-align:center""><img src=""ff_v4_034.png"" style=""max-width:90vw;max-height:72vh;display:block;margin:0 auto""><p style=""color:#fff;font-size:18px;margin-top:16px"">Было ли запомненное лицо в наборе?</p><div class=""keys"" style=""margin-top:12px""><div class=""key"">←<span>НЕ БЫЛО</span></div><div class=""key"">→<span>БЫЛО</span></div></div></div>",arrowleft,true,ff_034,face_face,real,8,false,real_015.png,ff_v4_034.png,,arrowleft,1,false,false,true,158,,,,,
,,,,,html-keyboard-response,158,214200,0.0-158.0,24,1,2026-06-10 13:01:04,fac33314ff793864f6ca77dbc392f4f8,109.122.201.136,"Mozilla/5.0 (Macintosh; Intel Mac OS X 10_15_7) AppleWebKit/537.36 (KHTML, like Gecko) Chrome/148.0.0.0 Safari/537.36",desktop,Chrome,148.0.0.0,OS X,10_15_7,null,"en-US,en;q=0.9,ru-RU;q=0.8,ru;q=0.7",p_1781096465926_0odu,1470,956,false,19,male,4,0,null,"<p style=""color:#808080;font-size:1px"">.</p>",null,,,,,,,,,,,,,,,,,,,,
,,,,,html-keyboard-response,159,214703,0.0-159.0,24,1,2026-06-10 13:01:04,fac33314ff793864f6ca77dbc392f4f8,109.122.201.136,"Mozilla/5.0 (Macintosh; Intel Mac OS X 10_15_7) AppleWebKit/537.36 (KHTML, like Gecko) Chrome/148.0.0.0 Safari/537.36",desktop,Chrome,148.0.0.0,OS X,10_15_7,null,"en-US,en;q=0.9,ru-RU;q=0.8,ru;q=0.7",p_1781096465926_0odu,1470,956,false,19,male,4,0,null,"<p style=""font-size:60px;color:#fff;margin:0"">+</p>",null,,,,,,,,,,,,,,,,,,,,
,,,,,html-keyboard-response,160,216205,0.0-160.0,24,1,2026-06-10 13:01:04,fac33314ff793864f6ca77dbc392f4f8,109.122.201.136,"Mozilla/5.0 (Macintosh; Intel Mac OS X 10_15_7) AppleWebKit/537.36 (KHTML, like Gecko) Chrome/148.0.0.0 Safari/537.36",desktop,Chrome,148.0.0.0,OS X,10_15_7,null,"en-US,en;q=0.9,ru-RU;q=0.8,ru;q=0.7",p_1781096465926_0odu,1470,956,false,19,male,4,0,null,"<div style=""text-align:center""><p style=""color:#fff;font-size:18px;margin-bottom:12px"">Запомните это лицо</p><img src=""ai_007.png"" style=""width:256px;height:256px;object-fit:contain;border:3px solid #fff;border-radius:4px;background:#808080""></div>",null,,,,,,,,,,,,,,,,,,,,
,,,,,html-keyboard-response,161,216706,0.0-161.0,24,1,2026-06-10 13:01:04,fac33314ff793864f6ca77dbc392f4f8,109.122.201.136,"Mozilla/5.0 (Macintosh; Intel Mac OS X 10_15_7) AppleWebKit/537.36 (KHTML, like Gecko) Chrome/148.0.0.0 Safari/537.36",desktop,Chrome,148.0.0.0,OS X,10_15_7,null,"en-US,en;q=0.9,ru-RU;q=0.8,ru;q=0.7",p_1781096465926_0odu,1470,956,false,19,male,4,0,null,"<p style=""color:#808080;font-size:1px"">.</p>",null,,,,,,,,,,,,,,,,,,,,
,,,,,html-keyboard-response,162,217836,0.0-162.0,24,1,2026-06-10 13:01:04,fac33314ff793864f6ca77dbc392f4f8,109.122.201.136,"Mozilla/5.0 (Macintosh; Intel Mac OS X 10_15_7) AppleWebKit/537.36 (KHTML, like Gecko) Chrome/148.0.0.0 Safari/537.36",desktop,Chrome,148.0.0.0,OS X,10_15_7,null,"en-US,en;q=0.9,ru-RU;q=0.8,ru;q=0.7",p_1781096465926_0odu,1470,956,false,19,male,4,0,1129,"<div style=""text-align:center""><img src=""ff_v4_029.png"" style=""max-width:90vw;max-height:72vh;display:block;margin:0 auto""><p style=""color:#fff;font-size:18px;margin-top:16px"">Было ли запомненное лицо в наборе?</p><div class=""keys"" style=""margin-top:12px""><div class=""key"">←<span>НЕ БЫЛО</span></div><div class=""key"">→<span>БЫЛО</span></div></div></div>",arrowleft,true,ff_029,face_face,ai,4,false,ai_007.png,ff_v4_029.png,,arrowleft,1,false,false,true,163,,,,,
,,,,,html-keyboard-response,163,218338,0.0-163.0,24,1,2026-06-10 13:01:04,fac33314ff793864f6ca77dbc392f4f8,109.122.201.136,"Mozilla/5.0 (Macintosh; Intel Mac OS X 10_15_7) AppleWebKit/537.36 (KHTML, like Gecko) Chrome/148.0.0.0 Safari/537.36",desktop,Chrome,148.0.0.0,OS X,10_15_7,null,"en-US,en;q=0.9,ru-RU;q=0.8,ru;q=0.7",p_1781096465926_0odu,1470,956,false,19,male,4,0,null,"<p style=""color:#808080;font-size:1px"">.</p>",null,,,,,,,,,,,,,,,,,,,,
,,,,,html-keyboard-response,164,218840,0.0-164.0,24,1,2026-06-10 13:01:04,fac33314ff793864f6ca77dbc392f4f8,109.122.201.136,"Mozilla/5.0 (Macintosh; Intel Mac OS X 10_15_7) AppleWebKit/537.36 (KHTML, like Gecko) Chrome/148.0.0.0 Safari/537.36",desktop,Chrome,148.0.0.0,OS X,10_15_7,null,"en-US,en;q=0.9,ru-RU;q=0.8,ru;q=0.7",p_1781096465926_0odu,1470,956,false,19,male,4,0,null,"<p style=""font-size:60px;color:#fff;margin:0"">+</p>",null,,,,,,,,,,,,,,,,,,,,
,,,,,html-keyboard-response,165,220342,0.0-165.0,24,1,2026-06-10 13:01:04,fac33314ff793864f6ca77dbc392f4f8,109.122.201.136,"Mozilla/5.0 (Macintosh; Intel Mac OS X 10_15_7) AppleWebKit/537.36 (KHTML, like Gecko) Chrome/148.0.0.0 Safari/537.36",desktop,Chrome,148.0.0.0,OS X,10_15_7,null,"en-US,en;q=0.9,ru-RU;q=0.8,ru;q=0.7",p_1781096465926_0odu,1470,956,false,19,male,4,0,null,"<div style=""text-align:center""><p style=""color:#fff;font-size:18px;margin-bottom:12px"">Запомните это лицо</p><img src=""ai_001.png"" style=""width:256px;height:256px;object-fit:contain;border:3px solid #fff;border-radius:4px;background:#808080""></div>",null,,,,,,,,,,,,,,,,,,,,
,,,,,html-keyboard-response,166,220844,0.0-166.0,24,1,2026-06-10 13:01:04,fac33314ff793864f6ca77dbc392f4f8,109.122.201.136,"Mozilla/5.0 (Macintosh; Intel Mac OS X 10_15_7) AppleWebKit/537.36 (KHTML, like Gecko) Chrome/148.0.0.0 Safari/537.36",desktop,Chrome,148.0.0.0,OS X,10_15_7,null,"en-US,en;q=0.9,ru-RU;q=0.8,ru;q=0.7",p_1781096465926_0odu,1470,956,false,19,male,4,0,null,"<p style=""color:#808080;font-size:1px"">.</p>",null,,,,,,,,,,,,,,,,,,,,
,,,,,html-keyboard-response,167,221902,0.0-167.0,24,1,2026-06-10 13:01:04,fac33314ff793864f6ca77dbc392f4f8,109.122.201.136,"Mozilla/5.0 (Macintosh; Intel Mac OS X 10_15_7) AppleWebKit/537.36 (KHTML, like Gecko) Chrome/148.0.0.0 Safari/537.36",desktop,Chrome,148.0.0.0,OS X,10_15_7,null,"en-US,en;q=0.9,ru-RU;q=0.8,ru;q=0.7",p_1781096465926_0odu,1470,956,false,19,male,4,0,1056,"<div style=""text-align:center""><img src=""ff_v4_040.png"" style=""max-width:90vw;max-height:72vh;display:block;margin:0 auto""><p style=""color:#fff;font-size:18px;margin-top:16px"">Было ли запомненное лицо в наборе?</p><div class=""keys"" style=""margin-top:12px""><div class=""key"">←<span>НЕ БЫЛО</span></div><div class=""key"">→<span>БЫЛО</span></div></div></div>",arrowright,true,ff_040,face_face,ai,8,true,ai_001.png,ff_v4_040.png,5,arrowright,1,false,false,true,168,,,,,
,,,,,html-keyboard-response,168,222403,0.0-168.0,24,1,2026-06-10 13:01:04,fac33314ff793864f6ca77dbc392f4f8,109.122.201.136,"Mozilla/5.0 (Macintosh; Intel Mac OS X 10_15_7) AppleWebKit/537.36 (KHTML, like Gecko) Chrome/148.0.0.0 Safari/537.36",desktop,Chrome,148.0.0.0,OS X,10_15_7,null,"en-US,en;q=0.9,ru-RU;q=0.8,ru;q=0.7",p_1781096465926_0odu,1470,956,false,19,male,4,0,null,"<p style=""color:#808080;font-size:1px"">.</p>",null,,,,,,,,,,,,,,,,,,,,
,,,,,html-keyboard-response,169,222905,0.0-169.0,24,1,2026-06-10 13:01:04,fac33314ff793864f6ca77dbc392f4f8,109.122.201.136,"Mozilla/5.0 (Macintosh; Intel Mac OS X 10_15_7) AppleWebKit/537.36 (KHTML, like Gecko) Chrome/148.0.0.0 Safari/537.36",desktop,Chrome,148.0.0.0,OS X,10_15_7,null,"en-US,en;q=0.9,ru-RU;q=0.8,ru;q=0.7",p_1781096465926_0odu,1470,956,false,19,male,4,0,null,"<p style=""font-size:60px;color:#fff;margin:0"">+</p>",null,,,,,,,,,,,,,,,,,,,,
,,,,,html-keyboard-response,170,224407,0.0-170.0,24,1,2026-06-10 13:01:04,fac33314ff793864f6ca77dbc392f4f8,109.122.201.136,"Mozilla/5.0 (Macintosh; Intel Mac OS X 10_15_7) AppleWebKit/537.36 (KHTML, like Gecko) Chrome/148.0.0.0 Safari/537.36",desktop,Chrome,148.0.0.0,OS X,10_15_7,null,"en-US,en;q=0.9,ru-RU;q=0.8,ru;q=0.7",p_1781096465926_0odu,1470,956,false,19,male,4,0,null,"<div style=""text-align:center""><p style=""color:#fff;font-size:18px;margin-bottom:12px"">Запомните это лицо</p><img src=""ai_007.png"" style=""width:256px;height:256px;object-fit:contain;border:3px solid #fff;border-radius:4px;background:#808080""></div>",null,,,,,,,,,,,,,,,,,,,,
,,,,,html-keyboard-response,171,224909,0.0-171.0,24,1,2026-06-10 13:01:04,fac33314ff793864f6ca77dbc392f4f8,109.122.201.136,"Mozilla/5.0 (Macintosh; Intel Mac OS X 10_15_7) AppleWebKit/537.36 (KHTML, like Gecko) Chrome/148.0.0.0 Safari/537.36",desktop,Chrome,148.0.0.0,OS X,10_15_7,null,"en-US,en;q=0.9,ru-RU;q=0.8,ru;q=0.7",p_1781096465926_0odu,1470,956,false,19,male,4,0,null,"<p style=""color:#808080;font-size:1px"">.</p>",null,,,,,,,,,,,,,,,,,,,,
